practice_games.thisRepN,practice_games.thisTrialN,practice_games.thisN,practice_games.thisIndex,practice_turns.thisRepN,practice_turns.thisTrialN,practice_turns.thisN,practice_turns.thisIndex,double_click_1.thisRepN,double_click_1.thisTrialN,double_click_1.thisN,double_click_1.thisIndex,games.thisRepN,games.thisTrialN,games.thisN,games.thisIndex,turns.thisRepN,turns.thisTrialN,turns.thisN,turns.thisIndex,double_click_2.thisRepN,double_click_2.thisTrialN,double_click_2.thisN,double_click_2.thisIndex,intervention_games.thisRepN,intervention_games.thisTrialN,intervention_games.thisN,intervention_games.thisIndex,intervention_moves.thisRepN,intervention_moves.thisTrialN,intervention_moves.thisN,intervention_moves.thisIndex,double_click_3.thisRepN,double_click_3.thisTrialN,double_click_3.thisN,double_click_3.thisIndex,more_games.thisRepN,more_games.thisTrialN,more_games.thisN,more_games.thisIndex,more_turns.thisRepN,more_turns.thisTrialN,more_turns.thisN,more_turns.thisIndex,double_click_4.thisRepN,double_click_4.thisTrialN,double_click_4.thisN,double_click_4.thisIndex,new_games.thisRepN,new_games.thisTrialN,new_games.thisN,new_games.thisIndex,turns_4.thisRepN,turns_4.thisTrialN,turns_4.thisN,turns_4.thisIndex,section_0_text.started,mouse.started,mouse.x,mouse.y,mouse.leftButton,mouse.midButton,mouse.rightButton,mouse.time,status_text.started,section_1_text.started,blink_text.started,section_2_text.started,section_3_text.started,euclid_text.started,section_4_text.started,end_text.started,participant,session,date,expName,psychopyVersion,frameRate,
,,,,,,,,,,,,,,,,,,,,,,,,,,,,,,,,,,,,,,,,,,,,,,,,,,,,,,,,,,,,,,,,,,,,,,,,2,2,2024-01-22_09h01.29.626,WythoffsHumanExp,2023.1.3,None,
,,,,,,,,,,,,,,,,,,,,,,,,,,,,,,,,,,,,,,,,,,,,,,,,,,,,,,,,,,,,,,,,,,,,,,,,2,2,2024-01-22_09h01.29.626,WythoffsHumanExp,2023.1.3,None,
,,,,,,,,,,,,,,,,,,,,,,,,,,,,,,,,,,,,,,,,,,,,,,,,,,,,,,,,184.26401750004152,,,,,,,,,,,,,,,,2,2,2024-01-22_09h01.29.626,WythoffsHumanExp,2023.1.3,None,
,,,,,,,,,,,,0,0,0,0,,,,,,,,,,,,,,,,,,,,,,,,,,,,,,,,,,,,,,,,,,0.03444791701622307,"[0.0, 0.0, 0.0, 0.0, 0.0, 0.0, 0.0, 0.0, -0.005555555555555556, -0.12777777777777777, -0.3288888888888889, -0.39555555555555555, -0.40444444444444444, -0.40444444444444444, -0.40444444444444444, -0.40444444444444444, -0.4222222222222222, -0.4411111111111111, -0.4488888888888889, -0.4477777777777778, -0.4388888888888889, -0.43444444444444447, -0.4311111111111111, -0.42444444444444446, -0.4222222222222222, -0.42, -0.4166666666666667, -0.4166666666666667, -0.4166666666666667]","[0.0, 0.0, 0.0, 0.0, 0.0, 0.0, 0.0, 0.0, 0.008888888888888889, 0.19111111111111112, 0.44555555555555554, 0.5, 0.5, 0.5, 0.5, 0.5, 0.4988888888888889, 0.4911111111111111, 0.4866666666666667, 0.48, 0.4577777777777778, 0.45111111111111113, 0.44666666666666666, 0.43666666666666665, 0.4311111111111111, 0.42444444444444446, 0.4166666666666667, 0.4166666666666667, 0.4166666666666667]","[0, 0, 0, 0, 0, 0, 0, 0, 0, 0, 0, 0, 0, 0, 0, 0, 0, 0, 0, 0, 0, 0, 0, 0, 0, 0, 0, 1, 1]","[0, 0, 0, 0, 0, 0, 0, 0, 0, 0, 0, 0, 0, 0, 0, 0, 0, 0, 0, 0, 0, 0, 0, 0, 0, 0, 0, 0, 0]","[0, 0, 0, 0, 0, 0, 0, 0, 0, 0, 0, 0, 0, 0, 0, 0, 0, 0, 0, 0, 0, 0, 0, 0, 0, 0, 0, 0, 0]","[0.00018866604659706354, 0.04846783302491531, 0.09621537500061095, 0.14456683304160833, 0.19292137504089624, 0.24170270800823346, 0.2904318750370294, 0.33953783300239593, 0.38848325004801154, 0.43764008302241564, 0.4867684580385685, 0.535575250047259, 0.5834900000481866, 0.6313605000032112, 0.6796479580225423, 0.7287261660094373, 0.7775961250299588, 0.8268858329975046, 0.8759854580275714, 0.925203541002702, 0.9740539580234326, 1.02309445803985, 1.0717790000489913, 1.1205825000070035, 1.1695152500178665, 1.2187425830052234, 1.2673087500152178, 1.3159552910365164, 1.3650737080024555]",249.95600279100472,241.21104108303552,,,,,,,2,2,2024-01-22_09h01.29.626,WythoffsHumanExp,2023.1.3,None,
,,,,,,,,,,,,1,0,1,0,,,,,,,,,,,,,,,,,,,,,,,,,,,,,,,,,,,,,,,,,,0.0006326669827103615,"[0.0, 0.0, 0.0, 0.0, 0.0, 0.0, 0.0, 0.0, 0.0, 0.0, 0.0, 0.0, 0.0, 0.0, 0.0, 0.0, 0.0, 0.0, 0.0, 0.0, 0.0, 0.0, 0.0, -0.005555555555555556, -0.035555555555555556, -0.24333333333333335, -0.34, -0.35, -0.35, -0.35, -0.35, -0.35, -0.3477777777777778, -0.3277777777777778, -0.3088888888888889, -0.29888888888888887, -0.29555555555555557, -0.29333333333333333, -0.29333333333333333, -0.29333333333333333, -0.29333333333333333, -0.2922222222222222, -0.2922222222222222, -0.2922222222222222, -0.2911111111111111, -0.2911111111111111, -0.2911111111111111, -0.2911111111111111, -0.2911111111111111, -0.2911111111111111, -0.2911111111111111, -0.2911111111111111, -0.2911111111111111, -0.2911111111111111, -0.29333333333333333, -0.29555555555555557, -0.29555555555555557, -0.29, -0.2833333333333333, -0.2833333333333333, -0.2866666666666667, -0.2866666666666667]","[0.0, 0.0, 0.0, 0.0, 0.0, 0.0, 0.0, 0.0, 0.0, 0.0, 0.0, 0.0, 0.0, 0.0, 0.0, 0.0, 0.0, 0.0, 0.0, 0.0, 0.0, 0.0, 0.0, 0.0033333333333333335, 0.035555555555555556, 0.31222222222222223, 0.48444444444444446, 0.5, 0.5, 0.5, 0.5, 0.5, 0.48, 0.4411111111111111, 0.4077777777777778, 0.3877777777777778, 0.37777777777777777, 0.37444444444444447, 0.37333333333333335, 0.37, 0.36777777777777776, 0.3655555555555556, 0.36333333333333334, 0.3611111111111111, 0.35888888888888887, 0.35888888888888887, 0.35888888888888887, 0.35888888888888887, 0.35888888888888887, 0.35888888888888887, 0.35888888888888887, 0.35888888888888887, 0.35888888888888887, 0.35888888888888887, 0.3622222222222222, 0.36444444444444446, 0.3655555555555556, 0.37, 0.38, 0.39, 0.41444444444444445, 0.41444444444444445]","[0, 0, 0, 0, 0, 0, 0, 0, 0, 0, 0, 0, 0, 0, 0, 0, 0, 0, 0, 0, 0, 0, 0, 0, 0, 0, 0, 0, 0, 0, 0, 0, 0, 0, 0, 0, 0, 0, 0, 0, 0, 0, 0, 0, 0, 0, 0, 0, 0, 0, 0, 0, 0, 0, 0, 0, 0, 0, 0, 0, 1, 1]","[0, 0, 0, 0, 0, 0, 0, 0, 0, 0, 0, 0, 0, 0, 0, 0, 0, 0, 0, 0, 0, 0, 0, 0, 0, 0, 0, 0, 0, 0, 0, 0, 0, 0, 0, 0, 0, 0, 0, 0, 0, 0, 0, 0, 0, 0, 0, 0, 0, 0, 0, 0, 0, 0, 0, 0, 0, 0, 0, 0, 0, 0]","[0, 0, 0, 0, 0, 0, 0, 0, 0, 0, 0, 0, 0, 0, 0, 0, 0, 0, 0, 0, 0, 0, 0, 0, 0, 0, 0, 0, 0, 0, 0, 0, 0, 0, 0, 0, 0, 0, 0, 0, 0, 0, 0, 0, 0, 0, 0, 0, 0, 0, 0, 0, 0, 0, 0, 0, 0, 0, 0, 0, 0, 0]","[0.0001807080116122961, 0.04932041699066758, 0.09746441699098796, 0.14557070803130046, 0.19349008303834125, 0.24135787499835715, 0.28986825002357364, 0.3382845830055885, 0.3861207500449382, 0.4347698329947889, 0.4828629170078784, 0.5312103329924867, 0.579075375047978, 0.6267834170139395, 0.6742602920276113, 0.7219301250297576, 0.7696810420020483, 0.8174885830376297, 0.8652324170107022, 0.912971792044118, 0.9606636670068838, 1.0086427080095746, 1.057003292022273, 1.1053960000281222, 1.1541317499941215, 1.2032368330401368, 1.2519588750437833, 1.3004838330089115, 1.348925833008252, 1.3971480000182055, 1.4450917080393992, 1.493731333001051, 1.5427752500399947, 1.5919815420056693, 1.6404943750239909, 1.689128125028219, 1.737845958035905, 1.7864642920321785, 1.8351061250432394, 1.8842676670174114, 1.933330667030532, 1.9818068750319071, 2.030785167007707, 2.0795735419960693, 2.128004458034411, 2.176367583044339, 2.224599750014022, 2.2729818749940023, 2.321445500012487, 2.369771249999758, 2.418357167043723, 2.466587000002619, 2.514889458019752, 2.563690083043184, 2.612412750022486, 2.6608360420214012, 2.7091731670079753, 2.7576143750338815, 2.8067080420441926, 2.8553620830061845, 2.9041105000069365, 2.9523316670092754]",268.6193354160059,,,,,,,,2,2,2024-01-22_09h01.29.626,WythoffsHumanExp,2023.1.3,None,
,,,,,,,,,,,,2,0,2,0,,,,,,,,,,,,,,,,,,,,,,,,,,,,,,,,,,,,,,,,,,0.0005749580450356007,"[0.0, 0.0, 0.0, 0.0, 0.0, 0.0, -0.04555555555555556, -0.11222222222222222, -0.16444444444444445, -0.16444444444444445, -0.16444444444444445, -0.16444444444444445, -0.16444444444444445, -0.2388888888888889, -0.3988888888888889, -0.4288888888888889, -0.42777777777777776, -0.4266666666666667, -0.43, -0.4311111111111111, -0.4288888888888889, -0.4288888888888889]","[0.0, 0.0, 0.0, 0.0, 0.0, 0.0, 0.04777777777777778, 0.09111111111111111, 0.1988888888888889, 0.1988888888888889, 0.1988888888888889, 0.1988888888888889, 0.1988888888888889, 0.2544444444444444, 0.39444444444444443, 0.41888888888888887, 0.41555555555555557, 0.4088888888888889, 0.4066666666666667, 0.4066666666666667, 0.4077777777777778, 0.4077777777777778]","[0, 0, 0, 0, 0, 0, 0, 0, 0, 0, 0, 0, 0, 0, 0, 0, 0, 0, 0, 0, 1, 1]","[0, 0, 0, 0, 0, 0, 0, 0, 0, 0, 0, 0, 0, 0, 0, 0, 0, 0, 0, 0, 0, 0]","[0, 0, 0, 0, 0, 0, 0, 0, 0, 0, 0, 0, 0, 0, 0, 0, 0, 0, 0, 0, 0, 0]","[0.00018545897910371423, 0.04909758397843689, 0.09730124997440726, 0.14634887501597404, 0.19534579198807478, 0.2542445000144653, 0.3037445420050062, 0.353069584001787, 0.40216383402002975, 0.4502728339866735, 0.49830575002124533, 0.5463444589986466, 0.5952085420140065, 0.6446495419950224, 0.6938607090269215, 0.7423811670159921, 0.7908465000218712, 0.8397328340215608, 0.8888591669965535, 0.93734195898287, 0.9862818340188824, 1.0349189169937745]",281.3466606250149,,,,,,,,2,2,2024-01-22_09h01.29.626,WythoffsHumanExp,2023.1.3,None,
,,,,,,,,,,,,3,0,3,0,,,,,,,,,,,,,,,,,,,,,,,,,,,,,,,,,,,,,,,,,,0.0005731660057790577,"[0.0, 0.0, 0.0, 0.0, 0.0, 0.0, 0.0, 0.0, 0.0, 0.0, 0.0, -0.017777777777777778, -0.1688888888888889, -0.3088888888888889, -0.34555555555555556, -0.34555555555555556, -0.34555555555555556, -0.34555555555555556, -0.34555555555555556, -0.34555555555555556, -0.34555555555555556, -0.34, -0.33444444444444443, -0.33111111111111113, -0.3288888888888889, -0.32666666666666666, -0.3244444444444444, -0.3233333333333333, -0.3211111111111111, -0.31777777777777777, -0.31666666666666665, -0.31666666666666665, -0.31666666666666665, -0.31666666666666665, -0.31666666666666665, -0.31666666666666665, -0.31666666666666665, -0.31666666666666665, -0.31666666666666665, -0.32, -0.32666666666666666, -0.33111111111111113, -0.3322222222222222, -0.3322222222222222, -0.3322222222222222, -0.3322222222222222, -0.3322222222222222, -0.3322222222222222, -0.3322222222222222, -0.3322222222222222, -0.3322222222222222, -0.33111111111111113, -0.33111111111111113, -0.33111111111111113, -0.33666666666666667, -0.3388888888888889, -0.3388888888888889]","[0.0, 0.0, 0.0, 0.0, 0.0, 0.0, 0.0, 0.0, 0.0, 0.0, 0.0, 0.006666666666666667, 0.1511111111111111, 0.36444444444444446, 0.45666666666666667, 0.45666666666666667, 0.45666666666666667, 0.45666666666666667, 0.45666666666666667, 0.45666666666666667, 0.45111111111111113, 0.43222222222222223, 0.3977777777777778, 0.37222222222222223, 0.3566666666666667, 0.3511111111111111, 0.3466666666666667, 0.34444444444444444, 0.3388888888888889, 0.3333333333333333, 0.3333333333333333, 0.3333333333333333, 0.3333333333333333, 0.3333333333333333, 0.3333333333333333, 0.3333333333333333, 0.33444444444444443, 0.35, 0.37333333333333335, 0.3988888888888889, 0.41, 0.4122222222222222, 0.4122222222222222, 0.4122222222222222, 0.40555555555555556, 0.4011111111111111, 0.4, 0.4, 0.40555555555555556, 0.4066666666666667, 0.3977777777777778, 0.3788888888888889, 0.36444444444444446, 0.3566666666666667, 0.3511111111111111, 0.3511111111111111, 0.3511111111111111]","[0, 0, 0, 0, 0, 0, 0, 0, 0, 0, 0, 0, 0, 0, 0, 0, 0, 0, 0, 0, 0, 0, 0, 0, 0, 0, 0, 0, 0, 0, 0, 0, 0, 0, 0, 0, 0, 0, 0, 0, 0, 0, 0, 0, 0, 0, 0, 0, 0, 0, 0, 0, 0, 0, 0, 1, 1]","[0, 0, 0, 0, 0, 0, 0, 0, 0, 0, 0, 0, 0, 0, 0, 0, 0, 0, 0, 0, 0, 0, 0, 0, 0, 0, 0, 0, 0, 0, 0, 0, 0, 0, 0, 0, 0, 0, 0, 0, 0, 0, 0, 0, 0, 0, 0, 0, 0, 0, 0, 0, 0, 0, 0, 0, 0]","[0, 0, 0, 0, 0, 0, 0, 0, 0, 0, 0, 0, 0, 0, 0, 0, 0, 0, 0, 0, 0, 0, 0, 0, 0, 0, 0, 0, 0, 0, 0, 0, 0, 0, 0, 0, 0, 0, 0, 0, 0, 0, 0, 0, 0, 0, 0, 0, 0, 0, 0, 0, 0, 0, 0, 0, 0]","[0.00018400000408291817, 0.04999495903030038, 0.09828270901925862, 0.14644812501501292, 0.19428575003985316, 0.24257533403579146, 0.29072212503524497, 0.33877425000537187, 0.3867775420076214, 0.435121042013634, 0.4841459169983864, 0.53399912500754, 0.5831714590312913, 0.6327863750047982, 0.6817077500163577, 0.7299180420232005, 0.7781040419940837, 0.8264840000192635, 0.8746709590195678, 0.9234438340063207, 0.9721935000270605, 1.0204916250077076, 1.0720335000078194, 1.121592250012327, 1.171022750029806, 1.2235267499927431, 1.275948167021852, 1.3272602920187637, 1.3765261250082403, 1.4257140420377254, 1.4741175420349464, 1.5225032920134254, 1.570494375017006, 1.618447125016246, 1.6668153750360943, 1.7153719590278342, 1.7645707090268843, 1.8145522919949144, 1.8642672920250334, 1.914039833995048, 1.963438667007722, 2.012270584004, 2.0605831670109183, 2.109262292040512, 2.1584860419970937, 2.2078930840361863, 2.256463708996307, 2.305686292005703, 2.3547444590367377, 2.4035654999897815, 2.4532627090229653, 2.5033880840055645, 2.5525986250140704, 2.602257083985023, 2.6519335840130225, 2.701360792038031, 2.750306500005536]",310.68980591598665,,,,,,,,2,2,2024-01-22_09h01.29.626,WythoffsHumanExp,2023.1.3,None,
,,,,,,,,,,,,4,0,4,0,,,,,,,,,,,,,,,,,,,,,,,,,,,,,,,,,,,,,,,,,,0.0005610000225715339,"[-0.5011111111111111, -0.5011111111111111, -0.5011111111111111, -0.5011111111111111, 0.0, 0.0, -0.028888888888888888, -0.15555555555555556, -0.17666666666666667, -0.17666666666666667, -0.17666666666666667, -0.17666666666666667, -0.19333333333333333, -0.31444444444444447, -0.3888888888888889, -0.3888888888888889, -0.3888888888888889, -0.3888888888888889, -0.3888888888888889, -0.39222222222222225, -0.4022222222222222, -0.41, -0.4111111111111111, -0.4111111111111111, -0.4111111111111111, -0.4111111111111111]","[0.5, 0.5, 0.5, 0.5, 0.0, 0.0, 0.043333333333333335, 0.052222222222222225, 0.052222222222222225, 0.052222222222222225, 0.052222222222222225, 0.052222222222222225, 0.07333333333333333, 0.28, 0.5, 0.5, 0.5, 0.5, 0.5, 0.48777777777777775, 0.4677777777777778, 0.45555555555555555, 0.4388888888888889, 0.4288888888888889, 0.4266666666666667, 0.4266666666666667]","[0, 0, 0, 0, 0, 0, 0, 0, 0, 0, 0, 0, 0, 0, 0, 0, 0, 0, 0, 0, 0, 0, 0, 0, 1, 1]","[0, 0, 0, 0, 0, 0, 0, 0, 0, 0, 0, 0, 0, 0, 0, 0, 0, 0, 0, 0, 0, 0, 0, 0, 0, 0]","[0, 0, 0, 0, 0, 0, 0, 0, 0, 0, 0, 0, 0, 0, 0, 0, 0, 0, 0, 0, 0, 0, 0, 0, 0, 0]","[0.00018770800670608878, 0.04946125001879409, 0.09805508301360533, 0.14658087503630668, 0.19538062502397224, 0.24423825001576915, 0.2929597499896772, 0.3420309160137549, 0.3907950409920886, 0.4387960000312887, 0.4872016250155866, 0.5351947910385206, 0.5834573330357671, 0.6322060410166159, 0.680556791019626, 0.7283299579867162, 0.7761547500267625, 0.8368649160256609, 0.8861203329870477, 0.9350997500005178, 0.9843289999989793, 1.0333976250258274, 1.0825262910220772, 1.1317066249903291, 1.1816929579945281, 1.2295452500111423]",326.9643641249859,,,,,,,,2,2,2024-01-22_09h01.29.626,WythoffsHumanExp,2023.1.3,None,
,,,,,,,,,,,,5,0,5,0,,,,,,,,,,,,,,,,,,,,,,,,,,,,,,,,,,,,,,,,,,0.0005967909819446504,"[-0.46, -0.46, -0.46, -0.46, 0.0, 0.0, -0.17444444444444446, -0.30333333333333334, -0.31, -0.21444444444444444, -0.21444444444444444, -0.21444444444444444, -0.21444444444444444, -0.2588888888888889, -0.33666666666666667, -0.3877777777777778, -0.3977777777777778, -0.3977777777777778, -0.4033333333333333, -0.4077777777777778, -0.41]","[0.5, 0.5, 0.5, 0.5, 0.0, 0.0, -0.021111111111111112, 0.024444444444444446, 0.34555555555555556, 0.5, 0.5, 0.5, 0.5, 0.48777777777777775, 0.45666666666666667, 0.43444444444444447, 0.4311111111111111, 0.42777777777777776, 0.41333333333333333, 0.40555555555555556, 0.40555555555555556]","[0, 0, 0, 0, 0, 0, 0, 0, 0, 0, 0, 0, 0, 0, 0, 0, 0, 0, 0, 0, 1]","[0, 0, 0, 0, 0, 0, 0, 0, 0, 0, 0, 0, 0, 0, 0, 0, 0, 0, 0, 0, 0]","[0, 0, 0, 0, 0, 0, 0, 0, 0, 0, 0, 0, 0, 0, 0, 0, 0, 0, 0, 0, 0]","[0.00019158399663865566, 0.04980954196071252, 0.09796099999221042, 0.14672483399044722, 0.19544154196046293, 0.24483737495029345, 0.2943803749512881, 0.34360570897115394, 0.3927379999659024, 0.44162429199786857, 0.49050029198406264, 0.5393115420010872, 0.5878487500012852, 0.6369552089599892, 0.6861937499488704, 0.7349773749592714, 0.7838577919756062, 0.8330935419653542, 0.8826918749837205, 0.9324151249602437, 0.9812365839607082]",339.8774251250434,,,,,,,,2,2,2024-01-22_09h01.29.626,WythoffsHumanExp,2023.1.3,None,
,,,,,,,,,,,,6,0,6,0,,,,,,,,,,,,,,,,,,,,,,,,,,,,,,,,,,,,,,,,,,0.0005598749849013984,"[0.0, 0.0, 0.0, 0.0, 0.0, 0.0, 0.0, 0.0, 0.0, -0.012222222222222223, -0.13444444444444445, -0.4855555555555556, -0.6011111111111112, -0.6066666666666667, -0.6066666666666667, -0.6066666666666667, -0.5988888888888889, -0.5377777777777778, -0.48, -0.4288888888888889, -0.4066666666666667, -0.3988888888888889, -0.39, -0.3811111111111111, -0.38333333333333336, -0.3988888888888889, -0.4122222222222222, -0.41555555555555557]","[0.0, 0.0, 0.0, 0.0, 0.0, 0.0, 0.0, 0.0, 0.0, 0.0, 0.058888888888888886, 0.41888888888888887, 0.5, 0.5, 0.5, 0.4988888888888889, 0.4666666666666667, 0.4033333333333333, 0.3711111111111111, 0.37, 0.36777777777777776, 0.36666666666666664, 0.37333333333333335, 0.38222222222222224, 0.3933333333333333, 0.39666666666666667, 0.4022222222222222, 0.4111111111111111]","[0, 0, 0, 0, 0, 0, 0, 0, 0, 0, 0, 0, 0, 0, 0, 0, 0, 0, 0, 0, 0, 0, 0, 0, 0, 0, 0, 1]","[0, 0, 0, 0, 0, 0, 0, 0, 0, 0, 0, 0, 0, 0, 0, 0, 0, 0, 0, 0, 0, 0, 0, 0, 0, 0, 0, 0]","[0, 0, 0, 0, 0, 0, 0, 0, 0, 0, 0, 0, 0, 0, 0, 0, 0, 0, 0, 0, 0, 0, 0, 0, 0, 0, 0, 0]","[0.00019049999536946416, 0.049221540975850075, 0.09724533295957372, 0.14552104094764218, 0.19414183299522847, 0.24267066596075892, 0.2913239999907091, 0.33924766595009714, 0.38797795795835555, 0.43662954098545015, 0.48530341597506776, 0.5340965829673223, 0.5829249160015024, 0.631442874961067, 0.6799380409647711, 0.7289042909978889, 0.7775841659749858, 0.826953332987614, 0.8759092079708353, 0.9249924999894574, 0.9735886249691248, 1.0225253329845145, 1.0713652499835007, 1.120373749989085, 1.1691117079462856, 1.2181037909467705, 1.267382624966558, 1.3162561249919236]",349.6472247079946,,,,,,,,2,2,2024-01-22_09h01.29.626,WythoffsHumanExp,2023.1.3,None,
,,,,,,,,,,,,7,0,7,0,,,,,,,,,,,,,,,,,,,,,,,,,,,,,,,,,,,,,,,,,,0.0005343329976312816,"[0.0, 0.0, 0.0, 0.0, 0.0, 0.0, 0.015555555555555555, 0.03666666666666667, 0.025555555555555557, -0.016666666666666666, -0.03888888888888889, -0.04111111111111111, -0.04111111111111111, -0.04111111111111111, -0.04111111111111111, -0.043333333333333335, -0.14, -0.2733333333333333, -0.32666666666666666, -0.33111111111111113, -0.33111111111111113, -0.33444444444444443, -0.3388888888888889, -0.34, -0.34, -0.3333333333333333, -0.33, -0.3288888888888889, -0.3288888888888889, -0.3288888888888889, -0.3288888888888889, -0.33, -0.33, -0.33, -0.33, -0.33, -0.33, -0.33, -0.36444444444444446, -0.38666666666666666, -0.39666666666666667, -0.39666666666666667, -0.39666666666666667, -0.3988888888888889, -0.3988888888888889]","[0.0, 0.0, 0.0, 0.0, 0.0, 0.0, -0.008888888888888889, 0.006666666666666667, 0.11777777777777777, 0.2222222222222222, 0.26666666666666666, 0.27111111111111114, 0.27111111111111114, 0.27111111111111114, 0.27111111111111114, 0.27111111111111114, 0.2722222222222222, 0.3011111111111111, 0.3188888888888889, 0.32222222222222224, 0.32222222222222224, 0.3233333333333333, 0.3244444444444444, 0.32666666666666666, 0.3288888888888889, 0.3288888888888889, 0.3288888888888889, 0.3288888888888889, 0.3288888888888889, 0.33, 0.33, 0.33111111111111113, 0.33111111111111113, 0.33111111111111113, 0.33111111111111113, 0.33111111111111113, 0.33111111111111113, 0.33111111111111113, 0.37, 0.40444444444444444, 0.41888888888888887, 0.41888888888888887, 0.41888888888888887, 0.41888888888888887, 0.41888888888888887]","[0, 0, 0, 0, 0, 0, 0, 0, 0, 0, 0, 0, 0, 0, 0, 0, 0, 0, 0, 0, 0, 0, 0, 0, 0, 0, 0, 0, 0, 0, 0, 0, 0, 0, 0, 0, 0, 0, 0, 0, 0, 0, 0, 1, 1]","[0, 0, 0, 0, 0, 0, 0, 0, 0, 0, 0, 0, 0, 0, 0, 0, 0, 0, 0, 0, 0, 0, 0, 0, 0, 0, 0, 0, 0, 0, 0, 0, 0, 0, 0, 0, 0, 0, 0, 0, 0, 0, 0, 0, 0]","[0, 0, 0, 0, 0, 0, 0, 0, 0, 0, 0, 0, 0, 0, 0, 0, 0, 0, 0, 0, 0, 0, 0, 0, 0, 0, 0, 0, 0, 0, 0, 0, 0, 0, 0, 0, 0, 0, 0, 0, 0, 0, 0, 0, 0]","[0.00041908305138349533, 0.05066429200815037, 0.09955550002632663, 0.14819345803698525, 0.19684629200492054, 0.24574404204031453, 0.2954915420268662, 0.3443690830026753, 0.3933730000280775, 0.4424486250500195, 0.49098341702483594, 0.5394980420242064, 0.5881170830107294, 0.6365243750042282, 0.6852067500003614, 0.7343812920153141, 0.782969125022646, 0.8319747920031659, 0.8808187080430798, 0.9299098330084234, 0.9786086670355871, 1.0274142500129528, 1.0764297500136308, 1.1250167500111274, 1.1737015420221724, 1.2228956250473857, 1.2715560830547474, 1.3199125420069322, 1.3683469170355238, 1.4169075000099838, 1.4654602500377223, 1.513724958000239, 1.5619830830255523, 1.6103851670050062, 1.6586489170440473, 1.7068145420053042, 1.7556982500245795, 1.8045933750108816, 1.8540396250318736, 1.902961875020992, 1.9521908330498263, 2.0005986250471324, 2.04905316705117, 2.098027667030692, 2.146854125021491]",360.46660595800495,,,,,,,,2,2,2024-01-22_09h01.29.626,WythoffsHumanExp,2023.1.3,None,
,,,,,,,,,,,,8,0,8,0,,,,,,,,,,,,,,,,,,,,,,,,,,,,,,,,,,,,,,,,,,0.0005651250248774886,"[0.0, 0.0, 0.0, 0.0, 0.0, 0.0, 0.0, 0.0, 0.0, 0.0, 0.0, -0.0044444444444444444, -0.07666666666666666, -0.20555555555555555, -0.25, -0.25, -0.25, -0.25, -0.25, -0.27555555555555555, -0.32555555555555554, -0.35777777777777775, -0.36, -0.35888888888888887, -0.35888888888888887, -0.35888888888888887]","[0.0, 0.0, 0.0, 0.0, 0.0, 0.0, 0.0, 0.0, 0.0, 0.0, 0.0, 0.0011111111111111111, 0.06666666666666667, 0.2111111111111111, 0.2911111111111111, 0.2911111111111111, 0.2911111111111111, 0.2911111111111111, 0.2911111111111111, 0.29888888888888887, 0.3322222222222222, 0.35333333333333333, 0.35555555555555557, 0.35555555555555557, 0.35555555555555557, 0.35555555555555557]","[0, 0, 0, 0, 0, 0, 0, 0, 0, 0, 0, 0, 0, 0, 0, 0, 0, 0, 0, 0, 0, 0, 0, 0, 1, 1]","[0, 0, 0, 0, 0, 0, 0, 0, 0, 0, 0, 0, 0, 0, 0, 0, 0, 0, 0, 0, 0, 0, 0, 0, 0, 0]","[0, 0, 0, 0, 0, 0, 0, 0, 0, 0, 0, 0, 0, 0, 0, 0, 0, 0, 0, 0, 0, 0, 0, 0, 0, 0]","[0.00019508297555148602, 0.049149208003655076, 0.0972881669877097, 0.1450012080022134, 0.19259045796934515, 0.24004245799733326, 0.28814358299132437, 0.33570854197023436, 0.38362983299884945, 0.4316973749664612, 0.48030208301497623, 0.5290105830063112, 0.5772288750158623, 0.6256131670088507, 0.673882249975577, 0.7219322500168346, 0.7701094169751741, 0.8181786669883877, 0.8667666669934988, 0.9155232919729315, 0.9645627079880796, 1.0133400000049733, 1.0623595420038328, 1.1113129999721423, 1.1604036670178175, 1.2086383330170065]",390.0025611250312,,,,,,,,2,2,2024-01-22_09h01.29.626,WythoffsHumanExp,2023.1.3,None,
,,,,,,,,,,,,9,0,9,0,,,,,,,,,,,,,,,,,,,,,,,,,,,,,,,,,,,,,,,,,,0.000579125015065074,"[0.0, 0.0, 0.0, 0.0, 0.0, 0.0, 0.0, 0.0, 0.0, 0.0, 0.0, -0.024444444444444446, -0.21555555555555556, -0.3211111111111111, -0.35, -0.35, -0.35, -0.35555555555555557, -0.37333333333333335, -0.39444444444444443, -0.4088888888888889, -0.4122222222222222, -0.4122222222222222]","[0.0, 0.0, 0.0, 0.0, 0.0, 0.0, 0.0, 0.0, 0.0, 0.0, 0.0, 0.021111111111111112, 0.2811111111111111, 0.4677777777777778, 0.5, 0.5, 0.5, 0.4922222222222222, 0.4477777777777778, 0.3988888888888889, 0.38333333333333336, 0.3811111111111111, 0.3811111111111111]","[0, 0, 0, 0, 0, 0, 0, 0, 0, 0, 0, 0, 0, 0, 0, 0, 0, 0, 0, 0, 0, 0, 1]","[0, 0, 0, 0, 0, 0, 0, 0, 0, 0, 0, 0, 0, 0, 0, 0, 0, 0, 0, 0, 0, 0, 0]","[0, 0, 0, 0, 0, 0, 0, 0, 0, 0, 0, 0, 0, 0, 0, 0, 0, 0, 0, 0, 0, 0, 0]","[0.00020145898452028632, 0.04919562500435859, 0.09682508400874212, 0.14481345895910636, 0.19270012498600408, 0.24022445897571743, 0.28834870900027454, 0.3366956670070067, 0.385612208978273, 0.4337265419890173, 0.4824040840030648, 0.5310054169967771, 0.5796255840105005, 0.6284917919547297, 0.6770226249936968, 0.7246913340059109, 0.7727024169871584, 0.8340468339738436, 0.8835350839653984, 0.9333261249703355, 0.9830922919791192, 1.0321528749773279, 1.0809990839916281]",409.46908624999924,,,,,,,,2,2,2024-01-22_09h01.29.626,WythoffsHumanExp,2023.1.3,None,
,,,,,,,,,,,,10,0,10,0,,,,,,,,,,,,,,,,,,,,,,,,,,,,,,,,,,,,,,,,,,0.0005577919655479491,"[0.0, 0.0, 0.0, 0.0, 0.0, 0.0, 0.022222222222222223, -0.016666666666666666, -0.22555555555555556, -0.41333333333333333, -0.44222222222222224, -0.44222222222222224, -0.44222222222222224, -0.44222222222222224, -0.44222222222222224, -0.44222222222222224, -0.44222222222222224, -0.44222222222222224, -0.44, -0.4388888888888889, -0.4388888888888889]","[0.0, 0.0, 0.0, 0.0, 0.0, 0.0, -0.06222222222222222, -0.08666666666666667, 0.05444444444444444, 0.33444444444444443, 0.39555555555555555, 0.39555555555555555, 0.39555555555555555, 0.39555555555555555, 0.39555555555555555, 0.39555555555555555, 0.39555555555555555, 0.39555555555555555, 0.3977777777777778, 0.4, 0.4]","[0, 0, 0, 0, 0, 0, 0, 0, 0, 0, 0, 0, 0, 0, 0, 0, 0, 0, 0, 1, 0]","[0, 0, 0, 0, 0, 0, 0, 0, 0, 0, 0, 0, 0, 0, 0, 0, 0, 0, 0, 0, 0]","[0, 0, 0, 0, 0, 0, 0, 0, 0, 0, 0, 0, 0, 0, 0, 0, 0, 0, 0, 0, 0]","[0.00043949997052550316, 0.05037987499963492, 0.10713770799338818, 0.15652754198526964, 0.20565008296398446, 0.2542970419744961, 0.30364724999526516, 0.3529117499710992, 0.4019974999828264, 0.45100266695953906, 0.4998679999844171, 0.5478932919795625, 0.5966451250133105, 0.6452440000139177, 0.6936177919851616, 0.7417915829573758, 0.7898523329640739, 0.8383791669621132, 0.8876458749873564, 0.9369360419805162, 0.9860651249764487]",429.72467891604174,,,,,,,,2,2,2024-01-22_09h01.29.626,WythoffsHumanExp,2023.1.3,None,
,,,,,,,,,,,,11,0,11,0,,,,,,,,,,,,,,,,,,,,,,,,,,,,,,,,,,,,,,,,,,,[],[],[],[],[],[],436.88881658302853,,,,,,,,2,2,2024-01-22_09h01.29.626,WythoffsHumanExp,2023.1.3,None,
,,,,,,,,,,,,12,0,12,0,,,,,,,,,,,,,,,,,,,,,,,,,,,,,,,,,,,,,,,,,,0.0005961250280961394,"[0.0, 0.0, 0.0, 0.0, 0.0, 0.0, 0.0, 0.0, 0.0, 0.0, 0.0, -0.022222222222222223, -0.12111111111111111, -0.2822222222222222, -0.3611111111111111, -0.37, -0.37, -0.37, -0.37, -0.3711111111111111, -0.3711111111111111, -0.3711111111111111, -0.3655555555555556, -0.36333333333333334, -0.3611111111111111, -0.35888888888888887, -0.35888888888888887, -0.35888888888888887, -0.35888888888888887, -0.35888888888888887, -0.35888888888888887, -0.35888888888888887, -0.35888888888888887, -0.35888888888888887, -0.35888888888888887, -0.35888888888888887, -0.35888888888888887, -0.35888888888888887, -0.35888888888888887, -0.35888888888888887, -0.35888888888888887, -0.35888888888888887, -0.35888888888888887, -0.35888888888888887, -0.35888888888888887, -0.35888888888888887, -0.35888888888888887, -0.35888888888888887, -0.35888888888888887, -0.35888888888888887, -0.35888888888888887, -0.35888888888888887, -0.35888888888888887, -0.35888888888888887, -0.35888888888888887, -0.35888888888888887, -0.35888888888888887, -0.35888888888888887, -0.35888888888888887, -0.35888888888888887, -0.35888888888888887, -0.3522222222222222, -0.32666666666666666, -0.30777777777777776, -0.30333333333333334, -0.30444444444444446, -0.30777777777777776, -0.3088888888888889, -0.3111111111111111, -0.3188888888888889, -0.3288888888888889, -0.3333333333333333, -0.33444444444444443, -0.3377777777777778, -0.3422222222222222, -0.34555555555555556, -0.3477777777777778, -0.3511111111111111, -0.35333333333333333, -0.35555555555555557, -0.35888888888888887, -0.36333333333333334, -0.36666666666666664, -0.36777777777777776, -0.36777777777777776, -0.36777777777777776, -0.36333333333333334, -0.35777777777777775, -0.35555555555555557, -0.35444444444444445, -0.35444444444444445, -0.35444444444444445, -0.35444444444444445, -0.35444444444444445]","[0.0, 0.0, 0.0, 0.0, 0.0, 0.0, 0.0, 0.0, 0.0, 0.0, 0.0, 0.01888888888888889, 0.15333333333333332, 0.40555555555555556, 0.5, 0.5, 0.5, 0.5, 0.5, 0.45, 0.4066666666666667, 0.38666666666666666, 0.3711111111111111, 0.35777777777777775, 0.3488888888888889, 0.3411111111111111, 0.34, 0.34, 0.34, 0.34, 0.34, 0.34, 0.34, 0.34, 0.34, 0.34, 0.34, 0.34, 0.34, 0.34, 0.34, 0.34, 0.34, 0.34, 0.34, 0.34, 0.34, 0.34, 0.34, 0.34, 0.34, 0.34, 0.34, 0.34, 0.34, 0.34, 0.34, 0.34, 0.34, 0.34, 0.34, 0.3488888888888889, 0.3788888888888889, 0.3977777777777778, 0.4022222222222222, 0.4, 0.3933333333333333, 0.3811111111111111, 0.3566666666666667, 0.33444444444444443, 0.3244444444444444, 0.32222222222222224, 0.3244444444444444, 0.33444444444444443, 0.34444444444444444, 0.35333333333333333, 0.3566666666666667, 0.35777777777777775, 0.35888888888888887, 0.35888888888888887, 0.35888888888888887, 0.3566666666666667, 0.35333333333333333, 0.3522222222222222, 0.3522222222222222, 0.3522222222222222, 0.3511111111111111, 0.35, 0.35, 0.35, 0.35, 0.35, 0.35, 0.35]","[0, 0, 0, 0, 0, 0, 0, 0, 0, 0, 0, 0, 0, 0, 0, 0, 0, 0, 0, 0, 0, 0, 0, 0, 0, 0, 0, 0, 0, 0, 0, 0, 0, 0, 0, 0, 0, 0, 0, 0, 0, 0, 0, 0, 0, 0, 0, 0, 0, 0, 0, 0, 0, 0, 0, 0, 0, 0, 0, 0, 0, 0, 0, 0, 0, 0, 0, 0, 0, 0, 0, 0, 0, 0, 0, 0, 0, 0, 0, 0, 0, 0, 0, 0, 0, 0, 0, 0, 0, 0, 0, 0, 1, 0]","[0, 0, 0, 0, 0, 0, 0, 0, 0, 0, 0, 0, 0, 0, 0, 0, 0, 0, 0, 0, 0, 0, 0, 0, 0, 0, 0, 0, 0, 0, 0, 0, 0, 0, 0, 0, 0, 0, 0, 0, 0, 0, 0, 0, 0, 0, 0, 0, 0, 0, 0, 0, 0, 0, 0, 0, 0, 0, 0, 0, 0, 0, 0, 0, 0, 0, 0, 0, 0, 0, 0, 0, 0, 0, 0, 0, 0, 0, 0, 0, 0, 0, 0, 0, 0, 0, 0, 0, 0, 0, 0, 0, 0, 0]","[0, 0, 0, 0, 0, 0, 0, 0, 0, 0, 0, 0, 0, 0, 0, 0, 0, 0, 0, 0, 0, 0, 0, 0, 0, 0, 0, 0, 0, 0, 0, 0, 0, 0, 0, 0, 0, 0, 0, 0, 0, 0, 0, 0, 0, 0, 0, 0, 0, 0, 0, 0, 0, 0, 0, 0, 0, 0, 0, 0, 0, 0, 0, 0, 0, 0, 0, 0, 0, 0, 0, 0, 0, 0, 0, 0, 0, 0, 0, 0, 0, 0, 0, 0, 0, 0, 0, 0, 0, 0, 0, 0, 0, 0]","[0.00020195799879729748, 0.049375624977983534, 0.09717024996643886, 0.1452409999910742, 0.19328987499466166, 0.2410884159617126, 0.28951541596325114, 0.33815745799802244, 0.38626779097830877, 0.43440845800796524, 0.48296391597250476, 0.5319012079853565, 0.5806607909617014, 0.6298407499562018, 0.6789100409951061, 0.7272310829721391, 0.7760812499909662, 0.8246847909758799, 0.8736219159909524, 0.9419723749742843, 0.991756165982224, 1.0413384579587728, 1.0911794999847189, 1.1406141250045039, 1.1897839999874122, 1.2391427079564892, 1.2875091249588877, 1.3356354999705218, 1.3836437079589814, 1.431412999983877, 1.4790013330057263, 1.5269000409753062, 1.5749016659683548, 1.6227334999712184, 1.6702761249616742, 1.7182905829977244, 1.7662826660089195, 1.81441533297766, 1.8619262079591863, 1.909883665968664, 1.9576255409629084, 2.0057844579569064, 2.0536405409802683, 2.101501333003398, 2.14978912496008, 2.1982243329985067, 2.2465216660057195, 2.2945804999908432, 2.3426724579767324, 2.390695040987339, 2.4386502080014907, 2.4867676660069264, 2.5349603329668753, 2.5833377499948256, 2.631130874971859, 2.679276165959891, 2.7269844579859637, 2.7758549159625545, 2.8238554159761406, 2.872163374966476, 2.920982582960278, 2.970154915994499, 3.018599166010972, 3.0677447500056587, 3.117293040966615, 3.1664536659955047, 3.215524540981278, 3.2646579580032267, 3.3135400830069557, 3.36251262499718, 3.4113853329909034, 3.460305457992945, 3.50910283299163, 3.557857832987793, 3.6066235000034794, 3.655807333008852, 3.7043646249803714, 3.753201707964763, 3.802448915957939, 3.851092915982008, 3.9003902499680407, 3.9491554999840446, 3.998511707992293, 4.047065874969121, 4.095881665998604, 4.144947749970015, 4.193473958002869, 4.2425592499785125, 4.291107541008387, 4.339298582985066, 4.3875417079543695, 4.435692541010212, 4.4848124999552965, 4.534275707963388]",452.13996075000614,,,,,,,,2,2,2024-01-22_09h01.29.626,WythoffsHumanExp,2023.1.3,None,
,,,,,,,,,,,,13,0,13,0,,,,,,,,,,,,,,,,,,,,,,,,,,,,,,,,,,,,,,,,,,0.0005738330073654652,"[0.0, 0.0, 0.0, 0.0, 0.0, 0.0, 0.0, 0.0, 0.0, -0.06, -0.23222222222222222, -0.39, -0.42333333333333334, -0.42333333333333334, -0.42333333333333334, -0.42333333333333334, -0.42333333333333334, -0.42333333333333334, -0.41888888888888887, -0.4088888888888889, -0.4033333333333333, -0.4033333333333333, -0.4033333333333333]","[0.0, 0.0, 0.0, 0.0, 0.0, 0.0, 0.0, 0.0, 0.0, 0.03777777777777778, 0.1922222222222222, 0.41333333333333333, 0.4633333333333333, 0.4633333333333333, 0.4633333333333333, 0.4633333333333333, 0.4633333333333333, 0.4577777777777778, 0.43666666666666665, 0.4166666666666667, 0.4088888888888889, 0.4077777777777778, 0.4077777777777778]","[0, 0, 0, 0, 0, 0, 0, 0, 0, 0, 0, 0, 0, 0, 0, 0, 0, 0, 0, 0, 0, 1, 1]","[0, 0, 0, 0, 0, 0, 0, 0, 0, 0, 0, 0, 0, 0, 0, 0, 0, 0, 0, 0, 0, 0, 0]","[0, 0, 0, 0, 0, 0, 0, 0, 0, 0, 0, 0, 0, 0, 0, 0, 0, 0, 0, 0, 0, 0, 0]","[0.00020995800150558352, 0.04939033300615847, 0.0972336659906432, 0.1453117910423316, 0.1931563750258647, 0.24122241599252447, 0.2897131250356324, 0.33813845802797005, 0.386823832988739, 0.4361420830246061, 0.4852180409943685, 0.5349799999967217, 0.5833887080079876, 0.6312939579947852, 0.6792727910215035, 0.727220083004795, 0.7755405409843661, 0.8245368750067428, 0.8737308330019005, 0.9225481250323355, 0.9716159160016105, 1.0208761250250973, 1.0697613329975866]",465.240688165999,,,,,,,,2,2,2024-01-22_09h01.29.626,WythoffsHumanExp,2023.1.3,None,
,,,,,,,,,,,,14,0,14,0,,,,,,,,,,,,,,,,,,,,,,,,,,,,,,,,,,,,,,,,,,0.0005875829956494272,"[0.0, 0.0, 0.0, 0.0, 0.0, 0.0, 0.0, 0.0, -0.016666666666666666, -0.15777777777777777, -0.40444444444444444, -0.4911111111111111, -0.4955555555555556, -0.4955555555555556, -0.4955555555555556, -0.49444444444444446, -0.4711111111111111, -0.4266666666666667, -0.4022222222222222, -0.3977777777777778, -0.3977777777777778, -0.3977777777777778]","[0.0, 0.0, 0.0, 0.0, 0.0, 0.0, 0.0, 0.0, 0.005555555555555556, 0.11666666666666667, 0.3788888888888889, 0.5, 0.5, 0.5, 0.5, 0.4855555555555556, 0.45444444444444443, 0.4166666666666667, 0.4, 0.39666666666666667, 0.39666666666666667, 0.39666666666666667]","[0, 0, 0, 0, 0, 0, 0, 0, 0, 0, 0, 0, 0, 0, 0, 0, 0, 0, 0, 0, 1, 1]","[0, 0, 0, 0, 0, 0, 0, 0, 0, 0, 0, 0, 0, 0, 0, 0, 0, 0, 0, 0, 0, 0]","[0, 0, 0, 0, 0, 0, 0, 0, 0, 0, 0, 0, 0, 0, 0, 0, 0, 0, 0, 0, 0, 0]","[0.00020950002362951636, 0.04909445799421519, 0.09735083300620317, 0.14528804103611037, 0.19327541603706777, 0.24098187504569069, 0.28947779099689797, 0.33854733302723616, 0.3876755000092089, 0.43665008299285546, 0.4857539579970762, 0.534642625018023, 0.5831460000481457, 0.631366582994815, 0.6805480000330135, 0.7294945410103537, 0.7786191250197589, 0.8273622500128113, 0.8765958330477588, 0.9262108330149204, 0.9758232909953222, 1.0248165830271319]",474.9542046250426,,,,,,,,2,2,2024-01-22_09h01.29.626,WythoffsHumanExp,2023.1.3,None,
,,,,,,,,,,,,15,0,15,0,,,,,,,,,,,,,,,,,,,,,,,,,,,,,,,,,,,,,,,,,,0.0005685830255970359,"[0.0, 0.0, 0.0, 0.0, 0.0, 0.0, -0.05444444444444444, -0.29777777777777775, -0.4311111111111111, -0.4533333333333333, -0.4533333333333333, -0.4533333333333333, -0.4533333333333333, -0.45, -0.43777777777777777, -0.4222222222222222, -0.41555555555555557, -0.4088888888888889, -0.4077777777777778, -0.4077777777777778, -0.4077777777777778]","[0.0, 0.0, 0.0, 0.0, 0.0, 0.0, -0.006666666666666667, 0.12444444444444444, 0.34, 0.4311111111111111, 0.44, 0.44, 0.44, 0.4311111111111111, 0.4166666666666667, 0.4011111111111111, 0.4, 0.4011111111111111, 0.4011111111111111, 0.4011111111111111, 0.4011111111111111]","[0, 0, 0, 0, 0, 0, 0, 0, 0, 0, 0, 0, 0, 0, 0, 0, 0, 0, 0, 1, 1]","[0, 0, 0, 0, 0, 0, 0, 0, 0, 0, 0, 0, 0, 0, 0, 0, 0, 0, 0, 0, 0]","[0, 0, 0, 0, 0, 0, 0, 0, 0, 0, 0, 0, 0, 0, 0, 0, 0, 0, 0, 0, 0]","[0.00045841600513085723, 0.050291833002120256, 0.09887041599722579, 0.14723545801825821, 0.1958938330062665, 0.24448412499623373, 0.29308133298764005, 0.3422106659854762, 0.3910823329933919, 0.4403485829825513, 0.4887086660019122, 0.5373168750084005, 0.586470540962182, 0.6355416660080664, 0.6842625829740427, 0.7490142909809947, 0.7992472909973003, 0.849196708004456, 0.8987570829922333, 0.9489197079674341, 0.9980899160145782]",484.2558497909922,,,,,,,,2,2,2024-01-22_09h01.29.626,WythoffsHumanExp,2023.1.3,None,
,,,,,,,,,,,,16,0,16,0,,,,,,,,,,,,,,,,,,,,,,,,,,,,,,,,,,,,,,,,,,0.0005581250297836959,"[0.0, 0.0, 0.0, 0.0, 0.0, 0.0, -0.06444444444444444, -0.1388888888888889, -0.15666666666666668, -0.15666666666666668, -0.15666666666666668, -0.16444444444444445, -0.23555555555555555, -0.31666666666666665, -0.3188888888888889, -0.3188888888888889, -0.3188888888888889, -0.33111111111111113, -0.37, -0.39444444444444443, -0.4033333333333333, -0.40555555555555556, -0.4066666666666667, -0.4077777777777778]","[0.0, 0.0, 0.0, 0.0, 0.0, 0.0, 0.044444444444444446, 0.058888888888888886, 0.06, 0.06, 0.06, 0.06444444444444444, 0.1711111111111111, 0.4011111111111111, 0.43333333333333335, 0.43333333333333335, 0.43333333333333335, 0.43444444444444447, 0.4388888888888889, 0.43777777777777777, 0.43222222222222223, 0.4288888888888889, 0.42444444444444446, 0.42444444444444446]","[0, 0, 0, 0, 0, 0, 0, 0, 0, 0, 0, 0, 0, 0, 0, 0, 0, 0, 0, 0, 0, 0, 1, 1]","[0, 0, 0, 0, 0, 0, 0, 0, 0, 0, 0, 0, 0, 0, 0, 0, 0, 0, 0, 0, 0, 0, 0, 0]","[0, 0, 0, 0, 0, 0, 0, 0, 0, 0, 0, 0, 0, 0, 0, 0, 0, 0, 0, 0, 0, 0, 0, 0]","[0.00047258398262783885, 0.05061470897635445, 0.09915245900629088, 0.14790983399143443, 0.19682820898015052, 0.24543825001455843, 0.2940182089805603, 0.34285399998771027, 0.3917178339906968, 0.44026850000955164, 0.4889313749736175, 0.5378582089906558, 0.586591666971799, 0.6352462499635294, 0.6831338339834474, 0.731043541978579, 0.7794578339671716, 0.8285816669813357, 0.8773200419964269, 0.9258581249741837, 0.9748092090012506, 1.0235418750089593, 1.073128624993842, 1.1215908749727532]",514.5650702079874,,,,,,,,2,2,2024-01-22_09h01.29.626,WythoffsHumanExp,2023.1.3,None,
,,,,,,,,,,,,17,0,17,0,,,,,,,,,,,,,,,,,,,,,,,,,,,,,,,,,,,,,,,,,,0.0005734169972129166,"[0.0, 0.0, 0.0, 0.0, 0.0, 0.0, -0.05555555555555555, -0.08444444444444445, -0.09, -0.09, -0.09666666666666666, -0.09666666666666666, -0.09666666666666666, -0.09666666666666666, -0.09666666666666666, -0.19555555555555557, -0.4777777777777778, -0.5666666666666667, -0.5666666666666667, -0.5666666666666667, -0.5666666666666667, -0.5488888888888889, -0.5066666666666667, -0.4622222222222222, -0.44, -0.43222222222222223, -0.4288888888888889, -0.42444444444444446, -0.42333333333333334, -0.42333333333333334, -0.42333333333333334]","[0.0, 0.0, 0.0, 0.0, 0.0, 0.0, 0.05, 0.07444444444444444, 0.08555555555555555, 0.09111111111111111, 0.10666666666666667, 0.10666666666666667, 0.10666666666666667, 0.10666666666666667, 0.10666666666666667, 0.17222222222222222, 0.3844444444444444, 0.47, 0.47555555555555556, 0.47555555555555556, 0.47555555555555556, 0.4622222222222222, 0.43333333333333335, 0.4111111111111111, 0.40444444444444444, 0.4033333333333333, 0.4033333333333333, 0.4, 0.4, 0.4, 0.4]","[0, 0, 0, 0, 0, 0, 0, 0, 0, 0, 0, 0, 0, 0, 0, 0, 0, 0, 0, 0, 0, 0, 0, 0, 0, 0, 0, 0, 0, 1, 1]","[0, 0, 0, 0, 0, 0, 0, 0, 0, 0, 0, 0, 0, 0, 0, 0, 0, 0, 0, 0, 0, 0, 0, 0, 0, 0, 0, 0, 0, 0, 0]","[0, 0, 0, 0, 0, 0, 0, 0, 0, 0, 0, 0, 0, 0, 0, 0, 0, 0, 0, 0, 0, 0, 0, 0, 0, 0, 0, 0, 0, 0, 0]","[0.00021645799279212952, 0.049389041028916836, 0.09799895802279934, 0.1468212910112925, 0.1963002079864964, 0.2451232909807004, 0.2940706249792129, 0.34377625002525747, 0.3926570829935372, 0.4413125410210341, 0.48990879103075713, 0.5373974579852074, 0.5852090829866938, 0.6332659579929896, 0.6821079580113292, 0.7308861659839749, 0.7799569159979001, 0.8289172910153866, 0.877506708027795, 0.926095916016493, 0.9751740409992635, 1.024564958002884, 1.0733177909860387, 1.1219055830151774, 1.1707310000201687, 1.2198407499818131, 1.2689130830112845, 1.3174179160268977, 1.3659240829874761, 1.4149057500180788, 1.4630612910259515]",527.0217132500256,,,,,,,,2,2,2024-01-22_09h01.29.626,WythoffsHumanExp,2023.1.3,None,
,,,,,,,,,,,,18,0,18,0,,,,,,,,,,,,,,,,,,,,,,,,,,,,,,,,,,,,,,,,,,0.0005872499896213412,"[0.0, 0.0, 0.0, 0.0, 0.0, 0.0, -0.0022222222222222222, -0.0022222222222222222, -0.0022222222222222222, -0.0022222222222222222, -0.0022222222222222222, -0.03333333333333333, -0.2811111111111111, -0.5, -0.5322222222222223, -0.5322222222222223, -0.5322222222222223, -0.5322222222222223, -0.5222222222222223, -0.48, -0.43, -0.41333333333333333, -0.4111111111111111, -0.4111111111111111, -0.4111111111111111, -0.4111111111111111]","[0.0, 0.0, 0.0, 0.0, 0.0, 0.0, 0.0077777777777777776, 0.0077777777777777776, 0.0077777777777777776, 0.0077777777777777776, 0.0077777777777777776, 0.012222222222222223, 0.1811111111111111, 0.43222222222222223, 0.49666666666666665, 0.49666666666666665, 0.49666666666666665, 0.49666666666666665, 0.4811111111111111, 0.44666666666666666, 0.4266666666666667, 0.42333333333333334, 0.4222222222222222, 0.4222222222222222, 0.4211111111111111, 0.4211111111111111]","[0, 0, 0, 0, 0, 0, 0, 0, 0, 0, 0, 0, 0, 0, 0, 0, 0, 0, 0, 0, 0, 0, 0, 0, 1, 1]","[0, 0, 0, 0, 0, 0, 0, 0, 0, 0, 0, 0, 0, 0, 0, 0, 0, 0, 0, 0, 0, 0, 0, 0, 0, 0]","[0, 0, 0, 0, 0, 0, 0, 0, 0, 0, 0, 0, 0, 0, 0, 0, 0, 0, 0, 0, 0, 0, 0, 0, 0, 0]","[0.00047262501902878284, 0.050396625010762364, 0.09958420798648149, 0.14831991703249514, 0.19712154200533405, 0.2459696670412086, 0.2941675829933956, 0.34266429202398285, 0.390776458021719, 0.43900783301796764, 0.4874643750372343, 0.5361477080150507, 0.5856096250354312, 0.6341562080197036, 0.6826185419922695, 0.7305662920116447, 0.7788344169966877, 0.8272010000073351, 0.8754791670362465, 0.9240472920355387, 0.9733552500256337, 1.0227647499996237, 1.0713460830156691, 1.1201468330109492, 1.1699404580285773, 1.2183417500345968]",546.1742467909935,,,,,,,,2,2,2024-01-22_09h01.29.626,WythoffsHumanExp,2023.1.3,None,
,,,,,,,,,,,,19,0,19,0,,,,,,,,,,,,,,,,,,,,,,,,,,,,,,,,,,,,,,,,,,0.000578374951146543,"[0.0, 0.0, 0.0, 0.0, 0.0, 0.0, -0.01888888888888889, -0.05, -0.05, -0.05, -0.05, -0.05, -0.12333333333333334, -0.2788888888888889, -0.3411111111111111, -0.35, -0.36666666666666664, -0.37666666666666665, -0.3877777777777778, -0.4, -0.40555555555555556, -0.40555555555555556]","[0.0, 0.0, 0.0, 0.0, 0.0, 0.0, 0.24888888888888888, 0.35333333333333333, 0.35333333333333333, 0.35333333333333333, 0.35333333333333333, 0.35333333333333333, 0.36, 0.3977777777777778, 0.4088888888888889, 0.41333333333333333, 0.41333333333333333, 0.41333333333333333, 0.41444444444444445, 0.41333333333333333, 0.4122222222222222, 0.4122222222222222]","[0, 0, 0, 0, 0, 0, 0, 0, 0, 0, 0, 0, 0, 0, 0, 0, 0, 0, 0, 0, 1, 1]","[0, 0, 0, 0, 0, 0, 0, 0, 0, 0, 0, 0, 0, 0, 0, 0, 0, 0, 0, 0, 0, 0]","[0, 0, 0, 0, 0, 0, 0, 0, 0, 0, 0, 0, 0, 0, 0, 0, 0, 0, 0, 0, 0, 0]","[0.0004731660010293126, 0.05125108303036541, 0.10128979099681601, 0.15105029102414846, 0.19991399999707937, 0.24899566604290158, 0.2982506250264123, 0.3475493330042809, 0.39558995800325647, 0.44352725002681836, 0.49149420799221843, 0.5398986249929294, 0.5893040830269456, 0.6384010000037961, 0.7250639999983832, 0.7754872909863479, 0.8256487910402939, 0.8754538749926724, 0.9247812500107102, 0.9747206250322051, 1.0245002080337144, 1.0737048329901882]",571.3632321250043,,,,,,,,2,2,2024-01-22_09h01.29.626,WythoffsHumanExp,2023.1.3,None,
,,,,,,,,,,,,20,0,20,0,,,,,,,,,,,,,,,,,,,,,,,,,,,,,,,,,,,,,,,,,,0.0005612919921986759,"[0.0, 0.0, 0.0, 0.0, 0.0, 0.0, -0.02, -0.02, -0.02, -0.02, -0.04555555555555556, -0.14444444444444443, -0.2966666666666667, -0.4222222222222222, -0.5144444444444445, -0.52, -0.5111111111111111, -0.5111111111111111, -0.5111111111111111, -0.5111111111111111, -0.5111111111111111, -0.49333333333333335, -0.45222222222222225, -0.41, -0.3933333333333333, -0.39, -0.39, -0.39]","[0.0, 0.0, 0.0, 0.0, 0.0, 0.0, 0.0022222222222222222, 0.0022222222222222222, 0.0022222222222222222, 0.0022222222222222222, -0.012222222222222223, -0.08222222222222222, -0.16666666666666666, -0.14222222222222222, 0.22444444444444445, 0.5, 0.5, 0.5, 0.5, 0.5, 0.5, 0.47888888888888886, 0.44666666666666666, 0.42444444444444446, 0.4177777777777778, 0.4166666666666667, 0.4166666666666667, 0.4166666666666667]","[0, 0, 0, 0, 0, 0, 0, 0, 0, 0, 0, 0, 0, 0, 0, 0, 0, 0, 0, 0, 0, 0, 0, 0, 0, 0, 0, 1]","[0, 0, 0, 0, 0, 0, 0, 0, 0, 0, 0, 0, 0, 0, 0, 0, 0, 0, 0, 0, 0, 0, 0, 0, 0, 0, 0, 0]","[0, 0, 0, 0, 0, 0, 0, 0, 0, 0, 0, 0, 0, 0, 0, 0, 0, 0, 0, 0, 0, 0, 0, 0, 0, 0, 0, 0]","[0.0004669589689001441, 0.05076995899435133, 0.09975125000346452, 0.14899562497157604, 0.19757170899538323, 0.24688179197255522, 0.3155960839940235, 0.36472349998075515, 0.4136495839920826, 0.4630259170080535, 0.5129437919822522, 0.5629059170023538, 0.6121358340024017, 0.6609631669707596, 0.7093834999832325, 0.7586239170050249, 0.8073132919962518, 0.8555543749826029, 0.9040923749562353, 0.9522977499873377, 1.0016136249760166, 1.0508375419885851, 1.0996646669809707, 1.1487992499605753, 1.1976074170088395, 1.2463966669747606, 1.3066378340008669, 1.3567238749819808]",583.226722833002,,,,,,,,2,2,2024-01-22_09h01.29.626,WythoffsHumanExp,2023.1.3,None,
,,,,,,,,,,,,21,0,21,0,,,,,,,,,,,,,,,,,,,,,,,,,,,,,,,,,,,,,,,,,,0.0005883750272914767,"[0.0, 0.0, 0.0, 0.0, 0.0, 0.0, -0.02666666666666667, -0.03111111111111111, -0.03111111111111111, -0.05555555555555555, -0.06666666666666667, -0.06666666666666667, -0.06666666666666667, -0.06666666666666667, -0.06666666666666667, -0.18666666666666668, -0.32555555555555554, -0.4022222222222222, -0.4066666666666667, -0.4066666666666667, -0.4066666666666667, -0.4066666666666667, -0.41, -0.41888888888888887, -0.42, -0.4177777777777778, -0.4177777777777778, -0.4177777777777778, -0.4177777777777778, -0.4177777777777778]","[0.0, 0.0, 0.0, 0.0, 0.0, 0.0, 0.03, 0.03666666666666667, 0.04111111111111111, 0.08444444444444445, 0.1111111111111111, 0.1111111111111111, 0.1111111111111111, 0.1111111111111111, 0.1111111111111111, 0.16777777777777778, 0.24666666666666667, 0.31222222222222223, 0.3211111111111111, 0.3211111111111111, 0.3211111111111111, 0.3211111111111111, 0.3377777777777778, 0.37444444444444447, 0.4, 0.4111111111111111, 0.41333333333333333, 0.4166666666666667, 0.4166666666666667, 0.4166666666666667]","[0, 0, 0, 0, 0, 0, 0, 0, 0, 0, 0, 0, 0, 0, 0, 0, 0, 0, 0, 0, 0, 0, 0, 0, 0, 0, 0, 0, 1, 1]","[0, 0, 0, 0, 0, 0, 0, 0, 0, 0, 0, 0, 0, 0, 0, 0, 0, 0, 0, 0, 0, 0, 0, 0, 0, 0, 0, 0, 0, 0]","[0, 0, 0, 0, 0, 0, 0, 0, 0, 0, 0, 0, 0, 0, 0, 0, 0, 0, 0, 0, 0, 0, 0, 0, 0, 0, 0, 0, 0, 0]","[0.00022312498185783625, 0.04951174999587238, 0.09801266697468236, 0.14709354197839275, 0.19614895799895748, 0.24504775000968948, 0.2942382920300588, 0.3429204170242883, 0.3914850000292063, 0.44042449997505173, 0.48878329200670123, 0.5364363749977201, 0.5840340830036439, 0.6317549999803305, 0.6799929580301978, 0.7285000000265427, 0.7766325420234352, 0.8252739169984125, 0.8736373329884373, 0.9218199999886565, 0.969653207983356, 1.0186470830230974, 1.068132832995616, 1.1173211670247838, 1.1663310829899274, 1.2153379999799654, 1.2643298750044778, 1.3129771249950863, 1.3617492080084048, 1.4102674170280807]",597.6694876659894,,,,,,,,2,2,2024-01-22_09h01.29.626,WythoffsHumanExp,2023.1.3,None,
,,,,,,,,,,,,22,0,22,0,,,,,,,,,,,,,,,,,,,,,,,,,,,,,,,,,,,,,,,,,,0.000579165993258357,"[-0.6144444444444445, -0.6144444444444445, -0.6144444444444445, -0.6144444444444445, 0.0, 0.0, -0.03333333333333333, -0.06333333333333334, -0.14, -0.18222222222222223, -0.18777777777777777, -0.18777777777777777, -0.18777777777777777, -0.18777777777777777, -0.22777777777777777, -0.30777777777777776, -0.3522222222222222, -0.3611111111111111, -0.36666666666666664, -0.37555555555555553, -0.39555555555555555, -0.41444444444444445, -0.42444444444444446, -0.4255555555555556]","[0.5, 0.5, 0.5, 0.5, 0.0, 0.0, -0.057777777777777775, -0.03666666666666667, 0.3188888888888889, 0.5, 0.5, 0.5, 0.5, 0.5, 0.48333333333333334, 0.44, 0.4077777777777778, 0.4011111111111111, 0.40555555555555556, 0.4077777777777778, 0.4066666666666667, 0.4066666666666667, 0.4077777777777778, 0.4077777777777778]","[0, 0, 0, 0, 0, 0, 0, 0, 0, 0, 0, 0, 0, 0, 0, 0, 0, 0, 0, 0, 0, 0, 1, 1]","[0, 0, 0, 0, 0, 0, 0, 0, 0, 0, 0, 0, 0, 0, 0, 0, 0, 0, 0, 0, 0, 0, 0, 0]","[0, 0, 0, 0, 0, 0, 0, 0, 0, 0, 0, 0, 0, 0, 0, 0, 0, 0, 0, 0, 0, 0, 0, 0]","[0.0002500420087017119, 0.04944549995707348, 0.09768204198917374, 0.14649366697994992, 0.1956262500025332, 0.24440091697033495, 0.293842124985531, 0.3426124999532476, 0.39135679200990126, 0.440422874991782, 0.4886479589622468, 0.5366907920106314, 0.5846419999725185, 0.6330087920068763, 0.6818335420102812, 0.7310436670086347, 0.7800432089716196, 0.8289254169794731, 0.8777779589872807, 0.9273867089650594, 0.9759431249694899, 1.0247893749619834, 1.0748104589874856, 1.1233707089559175]",612.579150540987,,,,,,,,2,2,2024-01-22_09h01.29.626,WythoffsHumanExp,2023.1.3,None,
,,,,,,,,,,,,23,0,23,0,,,,,,,,,,,,,,,,,,,,,,,,,,,,,,,,,,,,,,,,,,0.0005895840004086494,"[0.0, 0.0, 0.0, 0.0, 0.0, 0.0, -0.0022222222222222222, -0.0022222222222222222, -0.0022222222222222222, -0.0033333333333333335, -0.042222222222222223, -0.06333333333333334, -0.06555555555555556, -0.06555555555555556, -0.06555555555555556, -0.06555555555555556, -0.16444444444444445, -0.28555555555555556, -0.31444444444444447, -0.31444444444444447, -0.31444444444444447, -0.31444444444444447, -0.32222222222222224, -0.3333333333333333, -0.34444444444444444, -0.3477777777777778, -0.3477777777777778, -0.3477777777777778, -0.3477777777777778, -0.3477777777777778, -0.3477777777777778, -0.3477777777777778, -0.3477777777777778, -0.3466666666666667, -0.3466666666666667, -0.3466666666666667, -0.3466666666666667, -0.3466666666666667, -0.34444444444444444, -0.34444444444444444, -0.34444444444444444]","[0.0, 0.0, 0.0, 0.0, 0.0, 0.0, 0.0022222222222222222, -0.006666666666666667, -0.008888888888888889, 0.006666666666666667, 0.11777777777777777, 0.19111111111111112, 0.19666666666666666, 0.19666666666666666, 0.19666666666666666, 0.19666666666666666, 0.22555555555555556, 0.3, 0.3277777777777778, 0.3277777777777778, 0.3277777777777778, 0.3277777777777778, 0.32666666666666666, 0.3244444444444444, 0.32555555555555554, 0.33, 0.33, 0.33111111111111113, 0.33111111111111113, 0.33111111111111113, 0.33111111111111113, 0.33111111111111113, 0.33111111111111113, 0.33111111111111113, 0.33111111111111113, 0.33111111111111113, 0.33111111111111113, 0.3333333333333333, 0.3377777777777778, 0.3388888888888889, 0.3388888888888889]","[0, 0, 0, 0, 0, 0, 0, 0, 0, 0, 0, 0, 0, 0, 0, 0, 0, 0, 0, 0, 0, 0, 0, 0, 0, 0, 0, 0, 0, 0, 0, 0, 0, 0, 0, 0, 0, 0, 0, 1, 1]","[0, 0, 0, 0, 0, 0, 0, 0, 0, 0, 0, 0, 0, 0, 0, 0, 0, 0, 0, 0, 0, 0, 0, 0, 0, 0, 0, 0, 0, 0, 0, 0, 0, 0, 0, 0, 0, 0, 0, 0, 0]","[0, 0, 0, 0, 0, 0, 0, 0, 0, 0, 0, 0, 0, 0, 0, 0, 0, 0, 0, 0, 0, 0, 0, 0, 0, 0, 0, 0, 0, 0, 0, 0, 0, 0, 0, 0, 0, 0, 0, 0, 0]","[0.00022908300161361694, 0.05023316596634686, 0.099128041008953, 0.14802529098233208, 0.19686058297520503, 0.24578391597606242, 0.29448237497126684, 0.3433719580061734, 0.3924949999782257, 0.4419075410114601, 0.4908005829784088, 0.539683207985945, 0.5875194999971427, 0.635159666009713, 0.6833441659691744, 0.7319146249792539, 0.7808835000032559, 0.8296717079938389, 0.8785277910064906, 0.9267501250142232, 0.9755653329775669, 1.0245908329961821, 1.073347500001546, 1.1224067909643054, 1.1714813750004396, 1.2202665410004556, 1.268674833001569, 1.3172567500150762, 1.365624082973227, 1.4139165409724228, 1.462531041004695, 1.510888040997088, 1.5596521659754217, 1.6091308749746531, 1.6580918330000713, 1.7064953749650158, 1.7548704160144553, 1.8039695409825072, 1.8527657910017297, 1.9018498749937862, 1.9510273750056513]",636.9438679580344,,,,,,,,2,2,2024-01-22_09h01.29.626,WythoffsHumanExp,2023.1.3,None,
,,,,,,,,,,,,24,0,24,0,,,,,,,,,,,,,,,,,,,,,,,,,,,,,,,,,,,,,,,,,,0.0005886249709874392,"[0.0, 0.0, 0.0, 0.0, 0.0, 0.0, 0.0, 0.0, 0.0, 0.0, 0.0, 0.0, 0.0, 0.0, 0.0, 0.0, 0.0, 0.0, 0.0, 0.0, 0.0, 0.0, 0.0, 0.0, 0.0, 0.0, 0.0, 0.0, 0.0, 0.0, 0.0, 0.0, -0.20666666666666667, -0.5144444444444445, -0.5533333333333333, -0.5533333333333333, -0.5533333333333333, -0.5433333333333333, -0.5033333333333333, -0.46444444444444444, -0.43, -0.4111111111111111, -0.4066666666666667, -0.40444444444444444, -0.4022222222222222, -0.4022222222222222, -0.4022222222222222]","[0.0, 0.0, 0.0, 0.0, 0.0, 0.0, 0.0, 0.0, 0.0, 0.0, 0.0, 0.0, 0.0, 0.0, 0.0, 0.0, 0.0, 0.0, 0.0, 0.0, 0.0, 0.0, 0.0, 0.0, 0.0, 0.0, 0.0, 0.0, 0.0, 0.0, 0.0, 0.0, 0.1688888888888889, 0.5, 0.5, 0.5, 0.5, 0.4922222222222222, 0.4633333333333333, 0.43555555555555553, 0.4033333333333333, 0.38666666666666666, 0.3844444444444444, 0.3844444444444444, 0.3844444444444444, 0.3844444444444444, 0.3844444444444444]","[0, 0, 0, 0, 0, 0, 0, 0, 0, 0, 0, 0, 0, 0, 0, 0, 0, 0, 0, 0, 0, 0, 0, 0, 0, 0, 0, 0, 0, 0, 0, 0, 0, 0, 0, 0, 0, 0, 0, 0, 0, 0, 0, 0, 0, 1, 1]","[0, 0, 0, 0, 0, 0, 0, 0, 0, 0, 0, 0, 0, 0, 0, 0, 0, 0, 0, 0, 0, 0, 0, 0, 0, 0, 0, 0, 0, 0, 0, 0, 0, 0, 0, 0, 0, 0, 0, 0, 0, 0, 0, 0, 0, 0, 0]","[0, 0, 0, 0, 0, 0, 0, 0, 0, 0, 0, 0, 0, 0, 0, 0, 0, 0, 0, 0, 0, 0, 0, 0, 0, 0, 0, 0, 0, 0, 0, 0, 0, 0, 0, 0, 0, 0, 0, 0, 0, 0, 0, 0, 0, 0, 0]","[0.00022916699526831508, 0.05053316702833399, 0.09889466699678451, 0.14717083401046693, 0.19595083402236924, 0.24419720901641995, 0.2925605420023203, 0.3407614590250887, 0.38882758404361084, 0.4368771250010468, 0.4848741670139134, 0.5326824170188047, 0.5806114590377547, 0.6284978340263478, 0.6764055420062505, 0.7245885000447743, 0.7727426250348799, 0.8211014590342529, 0.8691852090414613, 0.9169987090281211, 0.9652806670055725, 1.0135182500234805, 1.0619924170314334, 1.1107077090418898, 1.158879209018778, 1.206664917001035, 1.2550491250003688, 1.3034135840134695, 1.3514845420140773, 1.3996273340308107, 1.4476607090327889, 1.496621917001903, 1.545849125017412, 1.595392792019993, 1.6438215840025805, 1.6923851250321604, 1.7410468750167638, 1.7905645000282675, 1.8400110840448178, 1.8892490839934908, 1.9381718750228174, 1.98725641699275, 2.036412500019651, 2.085031541995704, 2.1337632500217296, 2.183577417046763, 2.232715000049211]",653.4850847910275,,,,,,,,2,2,2024-01-22_09h01.29.626,WythoffsHumanExp,2023.1.3,None,
,,,,,,,,,,,,25,0,25,0,,,,,,,,,,,,,,,,,,,,,,,,,,,,,,,,,,,,,,,,,,0.046633500023745,"[0.0, 0.0, 0.0, 0.0, 0.0, 0.0, 0.0, -0.016666666666666666, -0.19444444444444445, -0.3988888888888889, -0.43444444444444447, -0.43444444444444447, -0.43444444444444447, -0.43444444444444447, -0.43444444444444447, -0.4266666666666667, -0.42, -0.42, -0.42, -0.4211111111111111, -0.4211111111111111]","[0.0, 0.0, 0.0, 0.0, 0.0, 0.0, 0.0, -0.008888888888888889, 0.058888888888888886, 0.2877777777777778, 0.36, 0.36, 0.36, 0.36, 0.3611111111111111, 0.39444444444444443, 0.41555555555555557, 0.4166666666666667, 0.4166666666666667, 0.41333333333333333, 0.4122222222222222]","[0, 0, 0, 0, 0, 0, 0, 0, 0, 0, 0, 0, 0, 0, 0, 0, 0, 0, 0, 1, 1]","[0, 0, 0, 0, 0, 0, 0, 0, 0, 0, 0, 0, 0, 0, 0, 0, 0, 0, 0, 0, 0]","[0, 0, 0, 0, 0, 0, 0, 0, 0, 0, 0, 0, 0, 0, 0, 0, 0, 0, 0, 0, 0]","[0.0005053749773651361, 0.049559707986190915, 0.09825216699391603, 0.14669587498065084, 0.19481870799791068, 0.24288058298407122, 0.29202866699779406, 0.34122333297273144, 0.3900768329622224, 0.4391526670078747, 0.48799691698513925, 0.5362212499603629, 0.5843507919926196, 0.6327880419557914, 0.6818719999864697, 0.7305589579627849, 0.7792497079935856, 0.8283721669577062, 0.877054666983895, 0.9269628329784609, 0.9753455829923041]",660.8411934580072,,,,,,,,2,2,2024-01-22_09h01.29.626,WythoffsHumanExp,2023.1.3,None,
,,,,,,,,,,,,26,0,26,0,,,,,,,,,,,,,,,,,,,,,,,,,,,,,,,,,,,,,,,,,,0.0005902920383960009,"[0.0, 0.0, 0.0, 0.0, 0.0, 0.0, 0.0, 0.0, 0.0, -0.05333333333333334, -0.23555555555555555, -0.42333333333333334, -0.4411111111111111, -0.4411111111111111, -0.4411111111111111, -0.4411111111111111, -0.4388888888888889, -0.43555555555555553, -0.43333333333333335, -0.4311111111111111, -0.43, -0.43]","[0.0, 0.0, 0.0, 0.0, 0.0, 0.0, 0.0, 0.0, 0.0, 0.022222222222222223, 0.18666666666666668, 0.39222222222222225, 0.4077777777777778, 0.4077777777777778, 0.4077777777777778, 0.4077777777777778, 0.4166666666666667, 0.4211111111111111, 0.4222222222222222, 0.4177777777777778, 0.41333333333333333, 0.41333333333333333]","[0, 0, 0, 0, 0, 0, 0, 0, 0, 0, 0, 0, 0, 0, 0, 0, 0, 0, 0, 0, 1, 1]","[0, 0, 0, 0, 0, 0, 0, 0, 0, 0, 0, 0, 0, 0, 0, 0, 0, 0, 0, 0, 0, 0]","[0, 0, 0, 0, 0, 0, 0, 0, 0, 0, 0, 0, 0, 0, 0, 0, 0, 0, 0, 0, 0, 0]","[0.00023445900296792388, 0.057551459001842886, 0.106113167013973, 0.15497966698603705, 0.20320950000314042, 0.2516251250053756, 0.29998349997913465, 0.34800483396975324, 0.39656258397735655, 0.4456581670092419, 0.49438950000330806, 0.543546458997298, 0.5917094590258785, 0.6396397919743322, 0.6874788340064697, 0.7362855420215055, 0.7857039999798872, 0.8350877499906346, 0.8841329999850132, 0.9331416669883765, 0.9828163749771193, 1.0314200000138953]",674.3298301660107,,,,,,,,2,2,2024-01-22_09h01.29.626,WythoffsHumanExp,2023.1.3,None,
,,,,,,,,,,,,27,0,27,0,,,,,,,,,,,,,,,,,,,,,,,,,,,,,,,,,,,,,,,,,,0.0005804580287076533,"[0.0, 0.0, 0.0, 0.0, 0.0, 0.0, -0.05, -0.08, -0.0811111111111111, -0.0811111111111111, -0.0811111111111111, -0.0811111111111111, -0.14666666666666667, -0.35, -0.4711111111111111, -0.48333333333333334, -0.48333333333333334, -0.48333333333333334, -0.48333333333333334, -0.47555555555555556, -0.45111111111111113, -0.4255555555555556, -0.4177777777777778, -0.4166666666666667, -0.4166666666666667]","[0.0, 0.0, 0.0, 0.0, 0.0, 0.0, 0.06666666666666667, 0.13111111111111112, 0.1388888888888889, 0.1388888888888889, 0.1388888888888889, 0.1388888888888889, 0.16, 0.3211111111111111, 0.4911111111111111, 0.5, 0.5, 0.5, 0.5, 0.4866666666666667, 0.4666666666666667, 0.44555555555555554, 0.43555555555555553, 0.4288888888888889, 0.4288888888888889]","[0, 0, 0, 0, 0, 0, 0, 0, 0, 0, 0, 0, 0, 0, 0, 0, 0, 0, 0, 0, 0, 0, 0, 1, 1]","[0, 0, 0, 0, 0, 0, 0, 0, 0, 0, 0, 0, 0, 0, 0, 0, 0, 0, 0, 0, 0, 0, 0, 0, 0]","[0, 0, 0, 0, 0, 0, 0, 0, 0, 0, 0, 0, 0, 0, 0, 0, 0, 0, 0, 0, 0, 0, 0, 0, 0]","[0.00023454101756215096, 0.05018037499394268, 0.09932529099751264, 0.14846608298830688, 0.19729337497847155, 0.24675837502582, 0.2964992499910295, 0.3458499999833293, 0.3945582910091616, 0.4432307080132887, 0.49196141597349197, 0.5411500830086879, 0.5903425409924239, 0.6398941249935888, 0.6893127909861505, 0.7377894580131397, 0.7862500830087811, 0.8344896659837104, 0.8831349160172977, 0.9321727500064299, 0.9816495410050265, 1.0309365409775637, 1.0797143750241958, 1.1292041660053656, 1.1782205000054091]",700.7792658749968,,,,,,,,2,2,2024-01-22_09h01.29.626,WythoffsHumanExp,2023.1.3,None,
,,,,,,,,,,,,28,0,28,0,,,,,,,,,,,,,,,,,,,,,,,,,,,,,,,,,,,,,,,,,,0.0005769580020569265,"[0.0, 0.0, 0.0, 0.0, 0.0, 0.0, -0.008888888888888889, -0.10444444444444445, -0.18666666666666668, -0.21444444444444444, -0.21555555555555556, -0.21555555555555556, -0.21555555555555556, -0.21555555555555556, -0.26222222222222225, -0.3522222222222222, -0.4077777777777778, -0.4211111111111111, -0.42333333333333334, -0.42333333333333334, -0.42333333333333334, -0.42333333333333334, -0.42333333333333334]","[0.0, 0.0, 0.0, 0.0, 0.0, 0.0, 0.11555555555555555, 0.5, 0.5, 0.5, 0.5, 0.5, 0.5, 0.5, 0.4822222222222222, 0.4577777777777778, 0.43666666666666665, 0.4311111111111111, 0.43, 0.43, 0.4288888888888889, 0.4288888888888889, 0.4288888888888889]","[0, 0, 0, 0, 0, 0, 0, 0, 0, 0, 0, 0, 0, 0, 0, 0, 0, 0, 0, 0, 0, 1, 0]","[0, 0, 0, 0, 0, 0, 0, 0, 0, 0, 0, 0, 0, 0, 0, 0, 0, 0, 0, 0, 0, 0, 0]","[0, 0, 0, 0, 0, 0, 0, 0, 0, 0, 0, 0, 0, 0, 0, 0, 0, 0, 0, 0, 0, 0, 0]","[0.00023512495681643486, 0.0667409579618834, 0.11688520800089464, 0.16733779094647616, 0.21691616595489904, 0.26621324999723583, 0.31584262498654425, 0.36473212495911866, 0.4135324159869924, 0.462448249978479, 0.510816874972079, 0.5590777499601245, 0.6077288329834118, 0.6570392079884186, 0.7066487079719082, 0.7562456659507006, 0.8054194579599425, 0.8543561659753323, 0.9026662909891456, 0.9514448329573497, 0.9998949159635231, 1.0487799999536946, 1.0983441249700263]",716.5092133330181,,,,,,,,2,2,2024-01-22_09h01.29.626,WythoffsHumanExp,2023.1.3,None,
,,,,,,,,,,,,29,0,29,0,,,,,,,,,,,,,,,,,,,,,,,,,,,,,,,,,,,,,,,,,,0.0005702920025214553,"[0.0, 0.0, 0.0, 0.0, 0.0, 0.0, -0.07888888888888888, -0.09666666666666666, -0.09666666666666666, -0.09666666666666666, -0.09666666666666666, -0.11888888888888889, -0.19111111111111112, -0.33666666666666667, -0.3688888888888889, -0.3688888888888889, -0.3688888888888889, -0.3688888888888889, -0.3688888888888889, -0.3688888888888889, -0.3688888888888889, -0.3688888888888889, -0.3688888888888889, -0.3688888888888889, -0.36444444444444446, -0.3511111111111111, -0.3433333333333333, -0.3411111111111111, -0.3411111111111111, -0.3411111111111111, -0.3411111111111111, -0.3411111111111111, -0.3411111111111111, -0.3411111111111111, -0.34, -0.34, -0.3422222222222222, -0.34555555555555556, -0.3477777777777778, -0.3477777777777778, -0.3477777777777778, -0.3477777777777778, -0.3466666666666667, -0.34555555555555556, -0.34444444444444444, -0.34444444444444444, -0.34444444444444444, -0.34444444444444444, -0.34444444444444444, -0.34444444444444444, -0.34444444444444444, -0.34444444444444444]","[0.0, 0.0, 0.0, 0.0, 0.0, 0.0, 0.0044444444444444444, -0.0022222222222222222, -0.0022222222222222222, -0.0022222222222222222, -0.0022222222222222222, -0.012222222222222223, 0.0033333333333333335, 0.27444444444444444, 0.48777777777777775, 0.5, 0.5, 0.5, 0.5, 0.5, 0.5, 0.5, 0.5, 0.49, 0.43333333333333335, 0.37444444444444447, 0.35, 0.34555555555555556, 0.34, 0.3377777777777778, 0.33666666666666667, 0.33666666666666667, 0.33666666666666667, 0.3377777777777778, 0.3433333333333333, 0.3477777777777778, 0.35777777777777775, 0.37222222222222223, 0.37777777777777777, 0.38, 0.38222222222222224, 0.38222222222222224, 0.38333333333333336, 0.38333333333333336, 0.3655555555555556, 0.3477777777777778, 0.3433333333333333, 0.3433333333333333, 0.3433333333333333, 0.3433333333333333, 0.3433333333333333, 0.3433333333333333]","[0, 0, 0, 0, 0, 0, 0, 0, 0, 0, 0, 0, 0, 0, 0, 0, 0, 0, 0, 0, 0, 0, 0, 0, 0, 0, 0, 0, 0, 0, 0, 0, 0, 0, 0, 0, 0, 0, 0, 0, 0, 0, 0, 0, 0, 0, 0, 0, 0, 0, 1, 1]","[0, 0, 0, 0, 0, 0, 0, 0, 0, 0, 0, 0, 0, 0, 0, 0, 0, 0, 0, 0, 0, 0, 0, 0, 0, 0, 0, 0, 0, 0, 0, 0, 0, 0, 0, 0, 0, 0, 0, 0, 0, 0, 0, 0, 0, 0, 0, 0, 0, 0, 0, 0]","[0, 0, 0, 0, 0, 0, 0, 0, 0, 0, 0, 0, 0, 0, 0, 0, 0, 0, 0, 0, 0, 0, 0, 0, 0, 0, 0, 0, 0, 0, 0, 0, 0, 0, 0, 0, 0, 0, 0, 0, 0, 0, 0, 0, 0, 0, 0, 0, 0, 0, 0, 0]","[0.00023670797236263752, 0.04944229096872732, 0.09867387497797608, 0.1480756659875624, 0.19711158296559006, 0.25976220797747374, 0.3101770830107853, 0.3599406249704771, 0.40809545799857005, 0.45673170796362683, 0.5058394999941811, 0.5552308749756776, 0.604639082972426, 0.6540094579686411, 0.7033192499657162, 0.7524720410001464, 0.80141758301761, 0.8494558329693973, 0.8974039579625241, 0.9457700409693643, 0.9942243749974295, 1.0423864579643123, 1.0912564159953035, 1.139973415993154, 1.189075790985953, 1.2381854999694042, 1.2875645409803838, 1.3367500000167638, 1.3856914580101147, 1.434691708011087, 1.483439541014377, 1.5317459579673596, 1.5805305410176516, 1.6293670409941114, 1.6787705409806222, 1.7288866660092026, 1.7790266249794513, 1.8289591249777004, 1.8781132909934968, 1.926771665981505, 1.9756519160000607, 2.024561457976233, 2.073363707982935, 2.1222893749945797, 2.1720546659780666, 2.2219069999991916, 2.27081045799423, 2.3195477909757756, 2.367853666015435, 2.4163742910022847, 2.4653147910139523, 2.514273624983616]",730.0778237910126,,,,,,,,2,2,2024-01-22_09h01.29.626,WythoffsHumanExp,2023.1.3,None,
,,,,,,,,,,,,,,,,,,,,,,,,,,,,,,,,,,,,,,,,,,,,,,,,,,,,,,,,,,,,,,,,,,,,,,,,2,2,2024-01-22_09h01.29.626,WythoffsHumanExp,2023.1.3,None,
,,,,,,,,,,,,,,,,,,,,,,,,,,,,,,,,,,,,,,,,,,,,,,,,,,,,,,,,,,,,,,,,,,,,,,,,2,2,2024-01-22_09h01.29.626,WythoffsHumanExp,2023.1.3,None,
,,,,,,,,,,,,,,,,,,,,,,,,,,,,,,,,,,,,,,,,,,,,,,,,,,,,,,,,,,,,,,,,,,732.3979385000421,,,,,,2,2,2024-01-22_09h01.29.626,WythoffsHumanExp,2023.1.3,None,
,,,,,,,,,,,,,,,,,,,,,,,,,,,,,,,,,,,,,,,,,,,,,,,,,,,,,,,,,0.0005917079979553819,"[0.0, 0.0, 0.0, 0.0, 0.0, 0.0, -0.008888888888888889, -0.008888888888888889, -0.008888888888888889, -0.008888888888888889, -0.03666666666666667, -0.17222222222222222, -0.36333333333333334, -0.43666666666666665, -0.45, -0.4411111111111111, -0.43555555555555553, -0.4288888888888889, -0.41333333333333333, -0.3977777777777778, -0.39444444444444443, -0.39444444444444443, -0.39555555555555555, -0.3977777777777778, -0.4, -0.4]","[0.0, 0.0, 0.0, 0.0, 0.0, 0.0, 0.013333333333333334, 0.013333333333333334, 0.013333333333333334, 0.013333333333333334, -0.0022222222222222222, -0.0011111111111111111, 0.16333333333333333, 0.3111111111111111, 0.3422222222222222, 0.34, 0.3388888888888889, 0.3388888888888889, 0.36444444444444446, 0.4088888888888889, 0.4177777777777778, 0.41888888888888887, 0.42, 0.42, 0.42, 0.42]","[0, 0, 0, 0, 0, 0, 0, 0, 0, 0, 0, 0, 0, 0, 0, 0, 0, 0, 0, 0, 0, 0, 0, 0, 0, 1]","[0, 0, 0, 0, 0, 0, 0, 0, 0, 0, 0, 0, 0, 0, 0, 0, 0, 0, 0, 0, 0, 0, 0, 0, 0, 0]","[0, 0, 0, 0, 0, 0, 0, 0, 0, 0, 0, 0, 0, 0, 0, 0, 0, 0, 0, 0, 0, 0, 0, 0, 0, 0]","[0.0006949999951757491, 0.0507856669719331, 0.10005845798877999, 0.14924041699850932, 0.19843783299438655, 0.24771329201757908, 0.29585758299799636, 0.3444442079635337, 0.39234816702082753, 0.4408415000070818, 0.489703124971129, 0.5385511249769479, 0.5880002499907278, 0.636865750013385, 0.685559541976545, 0.7347621250082739, 0.7844517920166254, 0.8336972499964759, 0.8828828330151737, 0.9319597500143573, 0.9808962499955669, 1.0302948330063373, 1.0794110000133514, 1.1283742499654181, 1.1773783749667928, 1.2263051670161076]",1651.1516214580042,,,770.1193844160298,1173.008263583004,1652.275199250027,,,2,2,2024-01-22_09h01.29.626,WythoffsHumanExp,2023.1.3,None,
,,,,,,,,,,,,,,,,,,,,,,,,,,,,,,,,,,,,,,,,,,,,,,,,,,,,,,,,,,,,,,,,,,,,,,,,2,2,2024-01-22_09h01.29.626,WythoffsHumanExp,2023.1.3,None,
,,,,,,,,,,,,,,,,,,,,,,,,,,,,,,,,,,,,,,,,,,,,,,,,0,0,0,0,,,,,,0.0006003749440424144,"[0.0, 0.0, 0.0, 0.0, 0.0, 0.0, -0.01888888888888889, -0.021111111111111112, -0.021111111111111112, -0.021111111111111112, -0.021111111111111112, -0.08444444444444445, -0.2833333333333333, -0.3933333333333333, -0.39666666666666667, -0.39666666666666667, -0.39666666666666667, -0.39666666666666667, -0.40444444444444444, -0.41, -0.4122222222222222, -0.41333333333333333, -0.41444444444444445, -0.41444444444444445, -0.41444444444444445, -0.41444444444444445, -0.41444444444444445, -0.41444444444444445]","[0.0, 0.0, 0.0, 0.0, 0.0, 0.0, 0.14222222222222222, 0.1711111111111111, 0.1711111111111111, 0.1711111111111111, 0.1711111111111111, 0.17888888888888888, 0.2633333333333333, 0.3477777777777778, 0.35555555555555557, 0.35555555555555557, 0.35555555555555557, 0.35555555555555557, 0.39111111111111113, 0.43777777777777777, 0.45, 0.4488888888888889, 0.4444444444444444, 0.43777777777777777, 0.42, 0.41444444444444445, 0.41444444444444445, 0.41444444444444445]","[0, 0, 0, 0, 0, 0, 0, 0, 0, 0, 0, 0, 0, 0, 0, 0, 0, 0, 0, 0, 0, 0, 0, 0, 0, 0, 1, 1]","[0, 0, 0, 0, 0, 0, 0, 0, 0, 0, 0, 0, 0, 0, 0, 0, 0, 0, 0, 0, 0, 0, 0, 0, 0, 0, 0, 0]","[0, 0, 0, 0, 0, 0, 0, 0, 0, 0, 0, 0, 0, 0, 0, 0, 0, 0, 0, 0, 0, 0, 0, 0, 0, 0, 0, 0]","[0.00029154098592698574, 0.0507178750121966, 0.10016783297760412, 0.1494247909868136, 0.19839558302192017, 0.24714133300585672, 0.2964510829770006, 0.3447078330209479, 0.3930886249872856, 0.4415574580198154, 0.49056158302119, 0.5406686660135165, 0.5900803330005147, 0.6391003329772502, 0.6880291660199873, 0.7364715000148863, 0.7846587909734808, 0.8334863330237567, 0.8825112080085091, 0.93186854099622, 0.9809060000116006, 1.0304164160043001, 1.0795032909954898, 1.1282407499966212, 1.1775047080009244, 1.2264788749744184, 1.2758177079958841, 1.3242143329698592]",1808.868343750015,,,,,,1757.5160877910093,,2,2,2024-01-22_09h01.29.626,WythoffsHumanExp,2023.1.3,None,
,,,,,,,,,,,,,,,,,,,,,,,,,,,,,,,,,,,,,,,,,,,,,,,,1,0,1,0,,,,,,,[],[],[],[],[],[],1818.9268799580168,,,,,,,,2,2,2024-01-22_09h01.29.626,WythoffsHumanExp,2023.1.3,None,
,,,,,,,,,,,,,,,,,,,,,,,,,,,,,,,,,,,,,,,,,,,,,,,,2,0,2,0,,,,,,0.0005751669523306191,"[0.0, 0.0, 0.0, 0.0, 0.0, 0.0, 0.0, -0.01, -0.11888888888888889, -0.3877777777777778, -0.4255555555555556, -0.4255555555555556, -0.4255555555555556, -0.4255555555555556, -0.4222222222222222, -0.4111111111111111, -0.4022222222222222, -0.4, -0.4011111111111111, -0.40444444444444444, -0.40555555555555556]","[0.0, 0.0, 0.0, 0.0, 0.0, 0.0, 0.0, 0.0011111111111111111, 0.07666666666666666, 0.4255555555555556, 0.5, 0.5, 0.5, 0.5, 0.4722222222222222, 0.44, 0.41888888888888887, 0.41555555555555557, 0.41444444444444445, 0.41444444444444445, 0.41555555555555557]","[0, 0, 0, 0, 0, 0, 0, 0, 0, 0, 0, 0, 0, 0, 0, 0, 0, 0, 0, 1, 1]","[0, 0, 0, 0, 0, 0, 0, 0, 0, 0, 0, 0, 0, 0, 0, 0, 0, 0, 0, 0, 0]","[0, 0, 0, 0, 0, 0, 0, 0, 0, 0, 0, 0, 0, 0, 0, 0, 0, 0, 0, 0, 0]","[0.0005782500375062227, 0.05066866701235995, 0.0993712079944089, 0.14798895799322054, 0.19596395798726007, 0.24388241703854874, 0.29234333301428705, 0.3413909579976462, 0.3899136669933796, 0.43955675000324845, 0.48812870803521946, 0.53635883302195, 0.5847718330333009, 0.6333532920107245, 0.6822911670315079, 0.7312761250068434, 0.7799898750381544, 0.8288482500356622, 0.8778169170254841, 0.9272478750208393, 0.976204292033799]",1850.7223635410191,,,,,,,,2,2,2024-01-22_09h01.29.626,WythoffsHumanExp,2023.1.3,None,
,,,,,,,,,,,,,,,,,,,,,,,,,,,,,,,,,,,,,,,,,,,,,,,,3,0,3,0,,,,,,0.0005800420185551047,"[0.0, 0.0, 0.0, 0.0, 0.0, 0.0, 0.0, -0.0011111111111111111, -0.052222222222222225, -0.15777777777777777, -0.24444444444444444, -0.27, -0.27444444444444444, -0.27555555555555555, -0.27666666666666667, -0.27666666666666667, -0.27666666666666667, -0.27666666666666667, -0.27666666666666667, -0.27666666666666667, -0.27666666666666667, -0.27666666666666667, -0.27666666666666667, -0.27666666666666667, -0.27666666666666667, -0.27666666666666667, -0.27666666666666667, -0.27666666666666667, -0.27666666666666667, -0.27666666666666667, -0.27666666666666667, -0.27666666666666667, -0.27666666666666667, -0.27666666666666667, -0.27666666666666667, -0.27666666666666667, -0.27666666666666667, -0.2822222222222222, -0.28888888888888886, -0.2911111111111111, -0.2911111111111111, -0.2922222222222222, -0.29333333333333333, -0.3, -0.31444444444444447, -0.3211111111111111, -0.3322222222222222, -0.3433333333333333, -0.34555555555555556, -0.34555555555555556, -0.34555555555555556, -0.3433333333333333, -0.3422222222222222, -0.3422222222222222, -0.34, -0.3288888888888889, -0.3088888888888889, -0.29777777777777775, -0.2966666666666667, -0.29888888888888887, -0.3, -0.3, -0.3, -0.3, -0.3, -0.3, -0.3, -0.3, -0.3, -0.3, -0.3011111111111111, -0.3011111111111111, -0.3011111111111111, -0.3011111111111111, -0.3011111111111111, -0.3011111111111111, -0.3011111111111111, -0.3011111111111111, -0.3011111111111111, -0.3011111111111111, -0.3011111111111111, -0.3011111111111111, -0.3011111111111111, -0.3011111111111111, -0.3011111111111111, -0.3011111111111111, -0.3011111111111111, -0.3011111111111111, -0.3011111111111111, -0.3011111111111111, -0.3011111111111111, -0.3011111111111111, -0.3011111111111111, -0.3011111111111111, -0.3011111111111111, -0.3011111111111111, -0.3011111111111111, -0.3011111111111111, -0.3011111111111111, -0.3011111111111111, -0.31777777777777777, -0.32666666666666666, -0.3333333333333333, -0.3388888888888889, -0.3411111111111111, -0.3422222222222222, -0.3422222222222222, -0.3422222222222222, -0.3422222222222222, -0.3422222222222222, -0.3422222222222222, -0.3422222222222222, -0.3422222222222222, -0.3411111111111111, -0.32, -0.29, -0.2788888888888889, -0.28, -0.2822222222222222, -0.28444444444444444, -0.2877777777777778, -0.29333333333333333, -0.29444444444444445, -0.29444444444444445, -0.29444444444444445, -0.29444444444444445, -0.29444444444444445, -0.29444444444444445, -0.29444444444444445, -0.29555555555555557, -0.3011111111111111, -0.3011111111111111, -0.3011111111111111, -0.3011111111111111, -0.3011111111111111, -0.3011111111111111, -0.3011111111111111, -0.3011111111111111, -0.3011111111111111, -0.3011111111111111, -0.3011111111111111, -0.3011111111111111, -0.3011111111111111, -0.3011111111111111, -0.3011111111111111, -0.3011111111111111, -0.3011111111111111, -0.3011111111111111, -0.3011111111111111, -0.3088888888888889, -0.3277777777777778, -0.3522222222222222, -0.37222222222222223, -0.3811111111111111, -0.3811111111111111, -0.37777777777777777, -0.37666666666666665, -0.3788888888888889, -0.3877777777777778, -0.39666666666666667, -0.4088888888888889, -0.41333333333333333, -0.41333333333333333]","[0.0, 0.0, 0.0, 0.0, 0.0, 0.0, 0.0, 0.0, 0.05333333333333334, 0.16666666666666666, 0.2611111111111111, 0.2966666666666667, 0.30333333333333334, 0.29888888888888887, 0.29444444444444445, 0.29444444444444445, 0.29444444444444445, 0.29444444444444445, 0.29888888888888887, 0.3, 0.3, 0.3, 0.3, 0.3, 0.3, 0.3, 0.3, 0.3, 0.3, 0.3, 0.3, 0.3, 0.3, 0.3, 0.3, 0.3, 0.3, 0.3, 0.3, 0.3, 0.3011111111111111, 0.3022222222222222, 0.30333333333333334, 0.30666666666666664, 0.31333333333333335, 0.31333333333333335, 0.31333333333333335, 0.3088888888888889, 0.30777777777777776, 0.30777777777777776, 0.3055555555555556, 0.30333333333333334, 0.3022222222222222, 0.3022222222222222, 0.3022222222222222, 0.31333333333333335, 0.33444444444444443, 0.34444444444444444, 0.34555555555555556, 0.34555555555555556, 0.34555555555555556, 0.34555555555555556, 0.34555555555555556, 0.34555555555555556, 0.34555555555555556, 0.34555555555555556, 0.34555555555555556, 0.34555555555555556, 0.34555555555555556, 0.34555555555555556, 0.3477777777777778, 0.3477777777777778, 0.3477777777777778, 0.3477777777777778, 0.3477777777777778, 0.3477777777777778, 0.3477777777777778, 0.3477777777777778, 0.3477777777777778, 0.3477777777777778, 0.3477777777777778, 0.3477777777777778, 0.3477777777777778, 0.3477777777777778, 0.3477777777777778, 0.3477777777777778, 0.3477777777777778, 0.3477777777777778, 0.3477777777777778, 0.3477777777777778, 0.3477777777777778, 0.3477777777777778, 0.3477777777777778, 0.3477777777777778, 0.3477777777777778, 0.3477777777777778, 0.3477777777777778, 0.3477777777777778, 0.3477777777777778, 0.3477777777777778, 0.32666666666666666, 0.30666666666666664, 0.29555555555555557, 0.28888888888888886, 0.2877777777777778, 0.28888888888888886, 0.29, 0.29, 0.29, 0.29, 0.29, 0.29, 0.29, 0.3111111111111111, 0.37555555555555553, 0.4255555555555556, 0.44, 0.43444444444444447, 0.4211111111111111, 0.4122222222222222, 0.4033333333333333, 0.39666666666666667, 0.39444444444444443, 0.39444444444444443, 0.39444444444444443, 0.39444444444444443, 0.39444444444444443, 0.39444444444444443, 0.39555555555555555, 0.4033333333333333, 0.4166666666666667, 0.4166666666666667, 0.4166666666666667, 0.4166666666666667, 0.4166666666666667, 0.4166666666666667, 0.4166666666666667, 0.4166666666666667, 0.4166666666666667, 0.4166666666666667, 0.4166666666666667, 0.4166666666666667, 0.4166666666666667, 0.4166666666666667, 0.4166666666666667, 0.4166666666666667, 0.4166666666666667, 0.4166666666666667, 0.4166666666666667, 0.4077777777777778, 0.3811111111111111, 0.35, 0.33111111111111113, 0.32555555555555554, 0.32555555555555554, 0.3233333333333333, 0.3188888888888889, 0.31444444444444447, 0.3088888888888889, 0.3055555555555556, 0.30333333333333334, 0.30333333333333334, 0.30333333333333334]","[0, 0, 0, 0, 0, 0, 0, 0, 0, 0, 0, 0, 0, 0, 0, 0, 0, 0, 0, 0, 0, 0, 0, 0, 0, 0, 0, 0, 0, 0, 0, 0, 0, 0, 0, 0, 0, 0, 0, 0, 0, 0, 0, 0, 0, 0, 0, 0, 0, 0, 0, 0, 0, 0, 0, 0, 0, 0, 0, 0, 0, 0, 0, 0, 0, 0, 0, 0, 0, 0, 0, 0, 0, 0, 1, 1, 0, 0, 0, 0, 0, 0, 0, 0, 0, 0, 0, 0, 0, 0, 0, 0, 0, 0, 1, 1, 0, 0, 0, 0, 0, 0, 0, 0, 1, 0, 0, 0, 0, 0, 0, 0, 0, 0, 0, 0, 0, 0, 0, 0, 0, 0, 0, 0, 0, 0, 0, 0, 0, 0, 1, 1, 0, 0, 0, 0, 0, 0, 0, 0, 0, 0, 0, 0, 0, 0, 0, 0, 0, 0, 0, 0, 0, 0, 0, 0, 0, 0, 0, 0, 0, 1, 1]","[0, 0, 0, 0, 0, 0, 0, 0, 0, 0, 0, 0, 0, 0, 0, 0, 0, 0, 0, 0, 0, 0, 0, 0, 0, 0, 0, 0, 0, 0, 0, 0, 0, 0, 0, 0, 0, 0, 0, 0, 0, 0, 0, 0, 0, 0, 0, 0, 0, 0, 0, 0, 0, 0, 0, 0, 0, 0, 0, 0, 0, 0, 0, 0, 0, 0, 0, 0, 0, 0, 0, 0, 0, 0, 0, 0, 0, 0, 0, 0, 0, 0, 0, 0, 0, 0, 0, 0, 0, 0, 0, 0, 0, 0, 0, 0, 0, 0, 0, 0, 0, 0, 0, 0, 0, 0, 0, 0, 0, 0, 0, 0, 0, 0, 0, 0, 0, 0, 0, 0, 0, 0, 0, 0, 0, 0, 0, 0, 0, 0, 0, 0, 0, 0, 0, 0, 0, 0, 0, 0, 0, 0, 0, 0, 0, 0, 0, 0, 0, 0, 0, 0, 0, 0, 0, 0, 0, 0, 0, 0, 0, 0, 0]","[0, 0, 0, 0, 0, 0, 0, 0, 0, 0, 0, 0, 0, 0, 0, 0, 0, 0, 0, 0, 0, 0, 0, 0, 0, 0, 0, 0, 0, 0, 0, 0, 0, 0, 0, 0, 0, 0, 0, 0, 0, 0, 0, 0, 0, 0, 0, 0, 0, 0, 0, 0, 0, 0, 0, 0, 0, 0, 0, 0, 0, 0, 0, 0, 0, 0, 0, 0, 0, 0, 0, 0, 0, 0, 0, 0, 0, 0, 0, 0, 0, 0, 0, 0, 0, 0, 0, 0, 0, 0, 0, 0, 0, 0, 0, 0, 0, 0, 0, 0, 0, 0, 0, 0, 0, 0, 0, 0, 0, 0, 0, 0, 0, 0, 0, 0, 0, 0, 0, 0, 0, 0, 0, 0, 0, 0, 0, 0, 0, 0, 0, 0, 0, 0, 0, 0, 0, 0, 0, 0, 0, 0, 0, 0, 0, 0, 0, 0, 0, 0, 0, 0, 0, 0, 0, 0, 0, 0, 0, 0, 0, 0, 0]","[0.00029858399648219347, 0.04964120901422575, 0.09766770899295807, 0.146183333999943, 0.19410941703245044, 0.2421416250290349, 0.29051700001582503, 0.33885712502524257, 0.38761020899983123, 0.43633445899467915, 0.48519579198909923, 0.5339501249836758, 0.5825237089884467, 0.631157458992675, 0.6797206670162268, 0.7280064590158872, 0.7761719590052962, 0.8246876670164056, 0.8738218339858577, 0.9240939589799382, 0.9731102919904515, 1.0218671250040643, 1.070187084027566, 1.1189592499868013, 1.1674113750341348, 1.2172091249958612, 1.2663945840322413, 1.3150484170182608, 1.3634010420064442, 1.4117237500031479, 1.4614200840005651, 1.510320125031285, 1.5590411250013858, 1.608191292034462, 1.6565845839795657, 1.7051827090326697, 1.7541566250147298, 1.8031242919969372, 1.8525001250091009, 1.902360084000975, 1.951773000007961, 2.00140004203422, 2.051570667012129, 2.1006224590237252, 2.149967667006422, 2.198846624989528, 2.2483092920156196, 2.297727000026498, 2.3470371669973247, 2.3962452090345323, 2.446401084016543, 2.4954927500220947, 2.5439873749855906, 2.5932177919894457, 2.6426681670127437, 2.69220500002848, 2.7416884169797413, 2.7918084590346552, 2.840899042028468, 2.8900998340104707, 2.9390100419986993, 2.9878896250156686, 3.0362502500065602, 3.0855844999896362, 3.1347383750253357, 3.1839421670301817, 3.2331971250241622, 3.281163417035714, 3.3299504590104334, 3.3789560840232298, 3.4273492920328863, 3.4758034590049647, 3.5240737500134856, 3.5729282919783145, 3.6243471250054426, 3.6723841670318507, 3.721258500008844, 3.7699780840193853, 3.818501042027492, 3.8666330840205774, 3.9145244589890353, 3.962630500027444, 4.010913167032413, 4.059019084030297, 4.107296459027566, 4.155537666985765, 4.2033693750272505, 4.251491917006206, 4.299594499985687, 4.348185500013642, 4.396544624993112, 4.444629417033866, 4.492556874989532, 4.540546167001594, 4.589592459029518, 4.637876917026006, 4.687427167023998, 4.736666333978064, 4.785118292027619, 4.834791667002719, 4.8845937920268625, 4.934315874997992, 4.998714999994263, 5.0490472500096075, 5.100118459027726, 5.149631124979351, 5.198248292028438, 5.247383749985602, 5.295413999992888, 5.343864916998427, 5.392722834018059, 5.441872459021397, 5.4913202919997275, 5.54031195899006, 5.589129999978468, 5.6385570840211585, 5.68778450001264, 5.737106084008701, 5.7858856249949895, 5.835812959005125, 5.885204416990746, 5.934865334013011, 5.983715792011935, 6.032292624993715, 6.08075808401918, 6.129056375008076, 6.1775670000351965, 6.2266694999998435, 6.276165542018134, 6.325587333994918, 6.375143959012348, 6.423663292021956, 6.472845166979823, 6.5212095840252005, 6.5692749170120806, 6.6174263340071775, 6.6655085000093095, 6.71357658400666, 6.761479792010505, 6.80939995899098, 6.857575875008479, 6.906132709002122, 6.954030041990336, 7.002439417003188, 7.050339417008217, 7.09892033401411, 7.147141208988614, 7.1958892089896835, 7.24515962501755, 7.294553584011737, 7.343461834010668, 7.392330834001768, 7.441581416991539, 7.490706791984849, 7.539998084015679, 7.589102459023707, 7.638390375010204, 7.687629916996229, 7.736542834027205, 7.785402167006396, 7.834669667005073, 7.884194209007546, 7.93312404199969]",1893.2645217910176,,,,,,,,2,2,2024-01-22_09h01.29.626,WythoffsHumanExp,2023.1.3,None,
