games.thisRepN,games.thisTrialN,games.thisN,games.thisIndex,turns.thisRepN,turns.thisTrialN,turns.thisN,turns.thisIndex,intervention_games.thisRepN,intervention_games.thisTrialN,intervention_games.thisN,intervention_games.thisIndex,intervention_moves.thisRepN,intervention_moves.thisTrialN,intervention_moves.thisN,intervention_moves.thisIndex,more_games.thisRepN,more_games.thisTrialN,more_games.thisN,more_games.thisIndex,more_turns.thisRepN,more_turns.thisTrialN,more_turns.thisN,more_turns.thisIndex,section_1_text.started,mouse.x,mouse.y,mouse.leftButton,mouse.midButton,mouse.rightButton,mouse.time,mouse.started,status_text.started,recall_text.started,section_2_text.started,section_3_text.started,participant,session,date,expName,psychopyVersion,frameRate,
,,,,,,,,,,,,,,,,,,,,,,,,,,,,,,,,,,,,353140,001,2023-10-16_14h31.20.910,WythoffsHumanExp,2023.1.3,None,
,,,,,,,,,,,,,,,,,,,,,,,,,,,,,,,,,,,,353140,001,2023-10-16_14h31.20.910,WythoffsHumanExp,2023.1.3,None,
,,,,,,,,,,,,,,,,,,,,,,,,32.77799566698377,,,,,,,,,,,,353140,001,2023-10-16_14h31.20.910,WythoffsHumanExp,2023.1.3,None,
0,0,0,0,,,,,,,,,,,,,,,,,,,,,,"[-0.23666666666666666, -0.23666666666666666, -0.23666666666666666, -0.23666666666666666, -0.23666666666666666, -0.23666666666666666, -0.23666666666666666, -0.23666666666666666, -0.23666666666666666, -0.23666666666666666, -0.23666666666666666, -0.23666666666666666, -0.23666666666666666, -0.23666666666666666, -0.23666666666666666, -0.23666666666666666, -0.23666666666666666, -0.23666666666666666, -0.23666666666666666, -0.23666666666666666, -0.23666666666666666, -0.23666666666666666, -0.23666666666666666, -0.23666666666666666, -0.23666666666666666, -0.23666666666666666, -0.23666666666666666, -0.23666666666666666, -0.23666666666666666, -0.23666666666666666, -0.23666666666666666, -0.23666666666666666, -0.23666666666666666, -0.23666666666666666, -0.23666666666666666, -0.23666666666666666, -0.23666666666666666, -0.23666666666666666, -0.23666666666666666, -0.23666666666666666, -0.23666666666666666, -0.23666666666666666, -0.23666666666666666, -0.23666666666666666, -0.23666666666666666, -0.24, -0.26222222222222225, -0.30666666666666664, -0.33111111111111113, -0.33666666666666667, -0.35, -0.36777777777777776, -0.37222222222222223, -0.37222222222222223, -0.37222222222222223]","[0.3566666666666667, 0.3566666666666667, 0.3566666666666667, 0.3566666666666667, 0.3566666666666667, 0.3566666666666667, 0.3566666666666667, 0.3566666666666667, 0.3566666666666667, 0.3566666666666667, 0.3566666666666667, 0.3566666666666667, 0.3566666666666667, 0.3566666666666667, 0.3566666666666667, 0.3566666666666667, 0.3566666666666667, 0.3566666666666667, 0.3566666666666667, 0.3566666666666667, 0.3566666666666667, 0.3566666666666667, 0.3566666666666667, 0.3566666666666667, 0.3566666666666667, 0.3566666666666667, 0.3566666666666667, 0.3566666666666667, 0.3566666666666667, 0.3566666666666667, 0.3566666666666667, 0.3566666666666667, 0.3566666666666667, 0.3566666666666667, 0.3566666666666667, 0.3566666666666667, 0.3566666666666667, 0.3566666666666667, 0.3566666666666667, 0.3566666666666667, 0.3566666666666667, 0.3566666666666667, 0.3566666666666667, 0.3566666666666667, 0.3566666666666667, 0.3566666666666667, 0.3511111111111111, 0.34555555555555556, 0.34555555555555556, 0.3466666666666667, 0.3511111111111111, 0.3522222222222222, 0.3522222222222222, 0.3522222222222222, 0.3522222222222222]","[0, 0, 0, 0, 0, 0, 0, 0, 0, 0, 0, 0, 0, 0, 0, 0, 0, 0, 0, 0, 0, 0, 0, 0, 0, 0, 0, 0, 0, 0, 0, 0, 0, 0, 0, 0, 0, 0, 0, 0, 0, 0, 0, 0, 0, 0, 0, 0, 0, 0, 0, 0, 0, 1, 1]","[0, 0, 0, 0, 0, 0, 0, 0, 0, 0, 0, 0, 0, 0, 0, 0, 0, 0, 0, 0, 0, 0, 0, 0, 0, 0, 0, 0, 0, 0, 0, 0, 0, 0, 0, 0, 0, 0, 0, 0, 0, 0, 0, 0, 0, 0, 0, 0, 0, 0, 0, 0, 0, 0, 0]","[0, 0, 0, 0, 0, 0, 0, 0, 0, 0, 0, 0, 0, 0, 0, 0, 0, 0, 0, 0, 0, 0, 0, 0, 0, 0, 0, 0, 0, 0, 0, 0, 0, 0, 0, 0, 0, 0, 0, 0, 0, 0, 0, 0, 0, 0, 0, 0, 0, 0, 0, 0, 0, 0, 0]","[0.00016879200120456517, 0.04911533399717882, 0.09813391699572094, 0.1472268749785144, 0.19613749999552965, 0.24563074999605305, 0.2948134589823894, 0.34356199999456294, 0.4058011669840198, 0.45639070897595957, 0.5066840839863289, 0.5569039169931784, 0.6070353339891881, 0.6569316249806434, 0.7061872499762103, 0.7554591669759247, 0.8044120419945102, 0.853408541996032, 0.9023473339912016, 0.9511835839948617, 1.0001883749791887, 1.0490703340037726, 1.0981948339904193, 1.1467437499959487, 1.1952924169891048, 1.244262208987493, 1.2929494169948157, 1.3415706669911742, 1.3906649999844376, 1.4399719169887248, 1.4896355419768952, 1.5395392919890583, 1.5889157920028083, 1.638544291985454, 1.6872560420015361, 1.7359028339851648, 1.7846195839811116, 1.8335026249988005, 1.8821941249771044, 1.931187249982031, 1.980513249989599, 2.0295884590013884, 2.07870774998446, 2.127639124984853, 2.1796961670042947, 2.2349411670002155, 2.290442041994538, 2.3472709999768995, 2.413173624983756, 2.466049166978337, 2.516118083993206, 2.5654526249854825, 2.614868333999766, 2.664431583980331, 2.7134912089968566]",0.006498333998024464,80.36096933399676,,,,353140,001,2023-10-16_14h31.20.910,WythoffsHumanExp,2023.1.3,None,
1,0,1,0,,,,,,,,,,,,,,,,,,,,,,"[-0.35, -0.35, -0.35, -0.3711111111111111, -0.40444444444444444, -0.4266666666666667, -0.43, -0.43, -0.43, -0.43, -0.43, -0.43, -0.43, -0.43, -0.43, -0.4288888888888889, -0.4288888888888889, -0.4288888888888889]","[0.2922222222222222, 0.2922222222222222, 0.2922222222222222, 0.3333333333333333, 0.3988888888888889, 0.4388888888888889, 0.44555555555555554, 0.44555555555555554, 0.44555555555555554, 0.44222222222222224, 0.44222222222222224, 0.44222222222222224, 0.44222222222222224, 0.44222222222222224, 0.44, 0.43222222222222223, 0.42777777777777776, 0.42777777777777776]","[0, 0, 0, 0, 0, 0, 0, 0, 0, 0, 0, 0, 0, 0, 0, 0, 1, 1]","[0, 0, 0, 0, 0, 0, 0, 0, 0, 0, 0, 0, 0, 0, 0, 0, 0, 0]","[0, 0, 0, 0, 0, 0, 0, 0, 0, 0, 0, 0, 0, 0, 0, 0, 0, 0]","[0.00017129199113696814, 0.04886070798966102, 0.10037450000527315, 0.15270766700268723, 0.2051511669997126, 0.25819979200605303, 0.311073207994923, 0.36260804199264385, 0.41483020799933, 0.465513250004733, 0.5147678749926854, 0.5642463749973103, 0.6140661670069676, 0.6635199169977568, 0.7131471669999883, 0.762568874983117, 0.8127833330072463, 0.8619082079967484]",0.045847584027796984,95.96236033400055,,,,353140,001,2023-10-16_14h31.20.910,WythoffsHumanExp,2023.1.3,None,
2,0,2,0,,,,,,,,,,,,,,,,,,,,,,"[-0.03777777777777778, -0.03777777777777778, -0.03777777777777778, -0.03777777777777778, -0.03777777777777778, -0.03777777777777778, -0.03777777777777778, -0.03777777777777778, -0.03777777777777778, -0.03777777777777778, -0.03777777777777778, -0.03777777777777778, -0.03777777777777778, -0.03888888888888889, -0.08222222222222222, -0.2644444444444444, -0.3933333333333333, -0.4177777777777778, -0.4177777777777778, -0.41444444444444445, -0.41333333333333333, -0.41333333333333333, -0.41444444444444445, -0.4122222222222222, -0.4111111111111111, -0.4111111111111111]","[0.034444444444444444, 0.034444444444444444, 0.034444444444444444, 0.034444444444444444, 0.034444444444444444, 0.034444444444444444, 0.034444444444444444, 0.034444444444444444, 0.034444444444444444, 0.034444444444444444, 0.034444444444444444, 0.034444444444444444, 0.034444444444444444, 0.034444444444444444, 0.06, 0.2722222222222222, 0.4388888888888889, 0.4777777777777778, 0.4777777777777778, 0.4766666666666667, 0.47333333333333333, 0.46444444444444444, 0.43444444444444447, 0.41, 0.39666666666666667, 0.39666666666666667]","[0, 0, 0, 0, 0, 0, 0, 0, 0, 0, 0, 0, 0, 0, 0, 0, 0, 0, 0, 0, 0, 0, 0, 0, 1, 1]","[0, 0, 0, 0, 0, 0, 0, 0, 0, 0, 0, 0, 0, 0, 0, 0, 0, 0, 0, 0, 0, 0, 0, 0, 0, 0]","[0, 0, 0, 0, 0, 0, 0, 0, 0, 0, 0, 0, 0, 0, 0, 0, 0, 0, 0, 0, 0, 0, 0, 0, 0, 0]","[0.000178459013113752, 0.04916629201034084, 0.09751270900596865, 0.14680458398652263, 0.19603154200012796, 0.24450787500245497, 0.2932603750086855, 0.34226370899705216, 0.39144912498886697, 0.44103312501101755, 0.4904920000117272, 0.5395089169905987, 0.588045874988893, 0.6377039169892669, 0.6870571670006029, 0.7363428749958985, 0.786099084012676, 0.8353173339855857, 0.884541542007355, 0.9338078339933418, 0.9830939999956172, 1.0331248749862425, 1.0829679169983137, 1.1325069169979542, 1.181994084006874, 1.2307442919991445]",0.022497332975035533,105.34634737498709,,,,353140,001,2023-10-16_14h31.20.910,WythoffsHumanExp,2023.1.3,None,
3,0,3,0,,,,,,,,,,,,,,,,,,,,,,"[-0.22, -0.22, -0.22, -0.22, -0.22, -0.22, -0.22, -0.22, -0.22, -0.22, -0.22, -0.22, -0.22, -0.22, -0.22, -0.22, -0.22, -0.22, -0.22, -0.22, -0.22111111111111112, -0.24888888888888888, -0.3388888888888889, -0.3933333333333333, -0.4088888888888889, -0.4088888888888889, -0.41444444444444445, -0.42, -0.42, -0.4122222222222222, -0.3877777777777778, -0.36333333333333334, -0.34555555555555556, -0.3388888888888889, -0.3388888888888889, -0.3388888888888889, -0.3388888888888889, -0.3388888888888889, -0.3388888888888889, -0.3388888888888889, -0.3388888888888889, -0.3388888888888889, -0.3388888888888889, -0.3388888888888889, -0.3388888888888889, -0.3388888888888889, -0.3388888888888889, -0.3388888888888889, -0.3388888888888889, -0.3388888888888889, -0.3388888888888889, -0.3388888888888889, -0.3388888888888889, -0.3388888888888889, -0.3388888888888889, -0.3388888888888889, -0.3388888888888889, -0.3388888888888889, -0.3388888888888889]","[0.3022222222222222, 0.3022222222222222, 0.3022222222222222, 0.3022222222222222, 0.3022222222222222, 0.3022222222222222, 0.3022222222222222, 0.3022222222222222, 0.3022222222222222, 0.3022222222222222, 0.3022222222222222, 0.3022222222222222, 0.3022222222222222, 0.3022222222222222, 0.3022222222222222, 0.3022222222222222, 0.3022222222222222, 0.3022222222222222, 0.3022222222222222, 0.3022222222222222, 0.3022222222222222, 0.32, 0.38, 0.41444444444444445, 0.4222222222222222, 0.4222222222222222, 0.42333333333333334, 0.42333333333333334, 0.4177777777777778, 0.40555555555555556, 0.38333333333333336, 0.36666666666666664, 0.35777777777777775, 0.35333333333333333, 0.35333333333333333, 0.35333333333333333, 0.35333333333333333, 0.35333333333333333, 0.35333333333333333, 0.35333333333333333, 0.35333333333333333, 0.35333333333333333, 0.35333333333333333, 0.35333333333333333, 0.35333333333333333, 0.35333333333333333, 0.35333333333333333, 0.35333333333333333, 0.35333333333333333, 0.35333333333333333, 0.35333333333333333, 0.35333333333333333, 0.35333333333333333, 0.35333333333333333, 0.35333333333333333, 0.35333333333333333, 0.35333333333333333, 0.35333333333333333, 0.35333333333333333]","[0, 0, 0, 0, 0, 0, 0, 0, 0, 0, 0, 0, 0, 0, 0, 0, 0, 0, 0, 0, 0, 0, 0, 0, 0, 0, 0, 0, 0, 0, 0, 0, 0, 0, 0, 0, 0, 0, 0, 0, 0, 0, 0, 0, 0, 0, 0, 0, 0, 0, 0, 0, 0, 0, 0, 0, 0, 1, 1]","[0, 0, 0, 0, 0, 0, 0, 0, 0, 0, 0, 0, 0, 0, 0, 0, 0, 0, 0, 0, 0, 0, 0, 0, 0, 0, 0, 0, 0, 0, 0, 0, 0, 0, 0, 0, 0, 0, 0, 0, 0, 0, 0, 0, 0, 0, 0, 0, 0, 0, 0, 0, 0, 0, 0, 0, 0, 0, 0]","[0, 0, 0, 0, 0, 0, 0, 0, 0, 0, 0, 0, 0, 0, 0, 0, 0, 0, 0, 0, 0, 0, 0, 0, 0, 0, 0, 0, 0, 0, 0, 0, 0, 0, 0, 0, 0, 0, 0, 0, 0, 0, 0, 0, 0, 0, 0, 0, 0, 0, 0, 0, 0, 0, 0, 0, 0, 0, 0]","[0.0001803330087568611, 0.04888441599905491, 0.09756095800548792, 0.14608087501255795, 0.19505224999738857, 0.2439480829925742, 0.29262024999479763, 0.3414728330099024, 0.39031845799763687, 0.4392260409949813, 0.48803308300557546, 0.5371115409943741, 0.5861956659937277, 0.6465390409866814, 0.6964482500043232, 0.7458014159929007, 0.7954226250003558, 0.8445285409979988, 0.8933510000060778, 0.9417815410124604, 0.9916478329978418, 1.0411002500040922, 1.0901812500087544, 1.1391775000083726, 1.1885408330126666, 1.2385539580136538, 1.288559415988857, 1.3387396250036545, 1.3886248329945374, 1.4384262909879908, 1.4885630409989972, 1.5386982079944573, 1.5885135410062503, 1.6391182910010684, 1.687826125009451, 1.7370596659893636, 1.786234625003999, 1.8353547499864362, 1.8848160410125274, 1.9342621660034638, 1.9836434999888297, 2.0324460410047323, 2.081018374999985, 2.1292603749898262, 2.1779197079886217, 2.2264374580117874, 2.274996041000122, 2.3236441249900963, 2.3722101250023115, 2.421330915996805, 2.4708627910003997, 2.5202759160019923, 2.5696259579854086, 2.619021499995142, 2.668159833003301, 2.717759249993833, 2.7666552499867976, 2.8161842080007773, 2.865220290987054]",0.0444901249720715,142.3767453749897,,,,353140,001,2023-10-16_14h31.20.910,WythoffsHumanExp,2023.1.3,None,
4,0,4,0,,,,,,,,,,,,,,,,,,,,,,"[-0.30333333333333334, -0.30333333333333334, -0.30333333333333334, -0.30333333333333334, -0.30333333333333334, -0.30333333333333334, -0.30333333333333334, -0.30333333333333334, -0.30333333333333334, -0.30333333333333334, -0.30333333333333334, -0.30333333333333334, -0.30333333333333334, -0.30333333333333334, -0.30333333333333334, -0.30333333333333334, -0.30333333333333334, -0.30333333333333334, -0.30333333333333334, -0.30333333333333334, -0.30333333333333334, -0.30333333333333334, -0.30333333333333334, -0.30333333333333334, -0.30333333333333334, -0.3111111111111111, -0.33111111111111113, -0.3411111111111111, -0.34444444444444444, -0.34555555555555556, -0.34555555555555556, -0.34555555555555556, -0.34555555555555556, -0.34555555555555556, -0.34555555555555556, -0.34555555555555556, -0.34555555555555556, -0.3466666666666667, -0.3466666666666667, -0.3477777777777778, -0.3488888888888889, -0.3488888888888889, -0.3488888888888889, -0.3488888888888889, -0.35333333333333333, -0.35444444444444445, -0.35444444444444445, -0.35444444444444445, -0.35444444444444445, -0.35444444444444445, -0.35444444444444445, -0.35444444444444445, -0.35444444444444445, -0.35444444444444445, -0.35333333333333333, -0.35333333333333333, -0.35333333333333333, -0.35333333333333333, -0.35333333333333333, -0.35333333333333333, -0.35333333333333333, -0.35333333333333333, -0.35333333333333333, -0.35333333333333333, -0.35333333333333333, -0.35333333333333333, -0.35333333333333333, -0.35333333333333333, -0.35333333333333333]","[0.17333333333333334, 0.17333333333333334, 0.17333333333333334, 0.17333333333333334, 0.17333333333333334, 0.17333333333333334, 0.17333333333333334, 0.17333333333333334, 0.17333333333333334, 0.17333333333333334, 0.17333333333333334, 0.17333333333333334, 0.17333333333333334, 0.17333333333333334, 0.17333333333333334, 0.17333333333333334, 0.17333333333333334, 0.17333333333333334, 0.17333333333333334, 0.17333333333333334, 0.17333333333333334, 0.17333333333333334, 0.17333333333333334, 0.17333333333333334, 0.17777777777777778, 0.2633333333333333, 0.38555555555555554, 0.44666666666666666, 0.4588888888888889, 0.4588888888888889, 0.4588888888888889, 0.4588888888888889, 0.4588888888888889, 0.4588888888888889, 0.4588888888888889, 0.4588888888888889, 0.44666666666666666, 0.4211111111111111, 0.3877777777777778, 0.3655555555555556, 0.35333333333333333, 0.3511111111111111, 0.3511111111111111, 0.3511111111111111, 0.35555555555555557, 0.35888888888888887, 0.35888888888888887, 0.35888888888888887, 0.35888888888888887, 0.35888888888888887, 0.35888888888888887, 0.36, 0.3622222222222222, 0.3655555555555556, 0.36666666666666664, 0.36777777777777776, 0.37, 0.37, 0.3655555555555556, 0.35444444444444445, 0.3511111111111111, 0.35, 0.35, 0.35, 0.35, 0.35, 0.35, 0.35, 0.35]","[0, 0, 0, 0, 0, 0, 0, 0, 0, 0, 0, 0, 0, 0, 0, 0, 0, 0, 0, 0, 0, 0, 0, 0, 0, 0, 0, 0, 0, 0, 0, 0, 0, 0, 0, 0, 0, 0, 0, 0, 0, 0, 0, 0, 0, 0, 0, 0, 0, 0, 0, 0, 0, 0, 0, 0, 0, 0, 0, 0, 0, 0, 0, 0, 0, 0, 0, 1, 1]","[0, 0, 0, 0, 0, 0, 0, 0, 0, 0, 0, 0, 0, 0, 0, 0, 0, 0, 0, 0, 0, 0, 0, 0, 0, 0, 0, 0, 0, 0, 0, 0, 0, 0, 0, 0, 0, 0, 0, 0, 0, 0, 0, 0, 0, 0, 0, 0, 0, 0, 0, 0, 0, 0, 0, 0, 0, 0, 0, 0, 0, 0, 0, 0, 0, 0, 0, 0, 0]","[0, 0, 0, 0, 0, 0, 0, 0, 0, 0, 0, 0, 0, 0, 0, 0, 0, 0, 0, 0, 0, 0, 0, 0, 0, 0, 0, 0, 0, 0, 0, 0, 0, 0, 0, 0, 0, 0, 0, 0, 0, 0, 0, 0, 0, 0, 0, 0, 0, 0, 0, 0, 0, 0, 0, 0, 0, 0, 0, 0, 0, 0, 0, 0, 0, 0, 0, 0, 0]","[0.0001855409936979413, 0.04957012497470714, 0.09901358297793195, 0.14769679098390043, 0.19657074997667223, 0.24533716597943567, 0.2940162079758011, 0.34281287499470636, 0.3914867909916211, 0.4407061660022009, 0.48938095799530856, 0.5381616249796934, 0.5868868749821559, 0.6353616249980405, 0.6842918329930399, 0.7333337079908233, 0.7825923749769572, 0.8312151659920346, 0.8797916249895934, 0.9281416659941897, 0.9764697499922477, 1.024879915989004, 1.0736233329807874, 1.1227018329955172, 1.1718748749990482, 1.2207839159818832, 1.269932582974434, 1.3190239579998888, 1.3685450409830082, 1.4187437499931548, 1.4693318749777973, 1.518869249994168, 1.567971790995216, 1.6170405829907395, 1.666200707986718, 1.7151759580010548, 1.764468624984147, 1.8133588749915361, 1.8626691249955911, 1.911422290984774, 1.9605185829859693, 2.0089818330015987, 2.0578316249884665, 2.106403499987209, 2.1555660409794655, 2.20459216600284, 2.2535981249820907, 2.3028057079936843, 2.3525704159983434, 2.4023589999997057, 2.4520966249983758, 2.5022793329844717, 2.551179832982598, 2.601517707982566, 2.652270790975308, 2.702471999975387, 2.7519483329961076, 2.801809249998769, 2.8517713749897666, 2.906738582998514, 2.955670208000811, 3.004737707989989, 3.0537002079945523, 3.1025015829945914, 3.151913915993646, 3.2017348329827655, 3.2519773329840973, 3.302348165976582, 3.3514925409981515]",0.016865458979737014,165.9033764170017,,,,353140,001,2023-10-16_14h31.20.910,WythoffsHumanExp,2023.1.3,None,
5,0,5,0,,,,,,,,,,,,,,,,,,,,,,"[0.008888888888888889, 0.008888888888888889, 0.008888888888888889, 0.008888888888888889, 0.008888888888888889, 0.008888888888888889, 0.008888888888888889, 0.008888888888888889, 0.008888888888888889, 0.008888888888888889, 0.008888888888888889, 0.008888888888888889, 0.008888888888888889, 0.008888888888888889, 0.008888888888888889, 0.008888888888888889, 0.008888888888888889, 0.008888888888888889, 0.008888888888888889, 0.008888888888888889, 0.008888888888888889, 0.008888888888888889, 0.008888888888888889, -0.035555555555555556, -0.31333333333333335, -0.47333333333333333, -0.5011111111111111, -0.5, -0.49444444444444446, -0.49, -0.4766666666666667, -0.44666666666666666, -0.41444444444444445, -0.4, -0.39444444444444443, -0.39444444444444443]","[-0.005555555555555556, -0.005555555555555556, -0.005555555555555556, -0.005555555555555556, -0.005555555555555556, -0.005555555555555556, -0.005555555555555556, -0.005555555555555556, -0.005555555555555556, -0.005555555555555556, -0.005555555555555556, -0.005555555555555556, -0.005555555555555556, -0.005555555555555556, -0.005555555555555556, -0.005555555555555556, -0.005555555555555556, -0.005555555555555556, -0.005555555555555556, -0.005555555555555556, -0.005555555555555556, -0.005555555555555556, -0.005555555555555556, 0.017777777777777778, 0.2688888888888889, 0.4677777777777778, 0.5, 0.5, 0.49333333333333335, 0.4811111111111111, 0.45555555555555555, 0.4211111111111111, 0.39555555555555555, 0.38555555555555554, 0.38222222222222224, 0.38222222222222224]","[0, 0, 0, 0, 0, 0, 0, 0, 0, 0, 0, 0, 0, 0, 0, 0, 0, 0, 0, 0, 0, 0, 0, 0, 0, 0, 0, 0, 0, 0, 0, 0, 0, 0, 1, 1]","[0, 0, 0, 0, 0, 0, 0, 0, 0, 0, 0, 0, 0, 0, 0, 0, 0, 0, 0, 0, 0, 0, 0, 0, 0, 0, 0, 0, 0, 0, 0, 0, 0, 0, 0, 0]","[0, 0, 0, 0, 0, 0, 0, 0, 0, 0, 0, 0, 0, 0, 0, 0, 0, 0, 0, 0, 0, 0, 0, 0, 0, 0, 0, 0, 0, 0, 0, 0, 0, 0, 0, 0]","[0.00018916698172688484, 0.04888787498930469, 0.09814824999193661, 0.14734299998963252, 0.1964623749954626, 0.24573949998011813, 0.29504824997275136, 0.343895749974763, 0.3932009999989532, 0.4416742079774849, 0.4902698749792762, 0.5384721249865834, 0.5870824169833213, 0.6374105829745531, 0.6885075829923153, 0.7394442919758148, 0.790533207997214, 0.8419870829966385, 0.8932069579896051, 0.944441542000277, 0.9950995830004103, 1.0441268329741433, 1.0930116249946877, 1.1421929999778513, 1.1916582499979995, 1.2409722079755738, 1.2901259579812177, 1.339555541984737, 1.3893556669936515, 1.4388785829942208, 1.4882016249757726, 1.5375582079868764, 1.5864357499813195, 1.6363630829728208, 1.685946082987357, 1.7351906249823514]",0.012099999992642552,178.4670703749871,,,,353140,001,2023-10-16_14h31.20.910,WythoffsHumanExp,2023.1.3,None,
6,0,6,0,,,,,,,,,,,,,,,,,,,,,,"[-0.29444444444444445, -0.29444444444444445, -0.29444444444444445, -0.29444444444444445, -0.29444444444444445, -0.29444444444444445, -0.29444444444444445, -0.29444444444444445, -0.29444444444444445, -0.29444444444444445, -0.29444444444444445, -0.29444444444444445, -0.29444444444444445, -0.29444444444444445, -0.29444444444444445, -0.29444444444444445, -0.29444444444444445, -0.29444444444444445, -0.30333333333333334, -0.3433333333333333, -0.39444444444444443, -0.41333333333333333, -0.4177777777777778, -0.4177777777777778, -0.4166666666666667, -0.4166666666666667, -0.4166666666666667, -0.4166666666666667, -0.4166666666666667, -0.4166666666666667, -0.4166666666666667, -0.4166666666666667, -0.4166666666666667, -0.4166666666666667, -0.4166666666666667, -0.41555555555555557, -0.4122222222222222, -0.4077777777777778, -0.4066666666666667, -0.40555555555555556, -0.40444444444444444, -0.4022222222222222, -0.3988888888888889, -0.39444444444444443, -0.39222222222222225, -0.39111111111111113, -0.39, -0.3888888888888889, -0.3888888888888889, -0.3877777777777778, -0.38555555555555554, -0.37666666666666665, -0.3611111111111111, -0.35444444444444445, -0.3522222222222222, -0.3511111111111111, -0.3511111111111111, -0.3511111111111111, -0.3511111111111111, -0.3511111111111111, -0.3511111111111111, -0.3511111111111111, -0.3511111111111111, -0.3511111111111111, -0.3511111111111111, -0.3511111111111111, -0.3511111111111111, -0.3511111111111111, -0.3522222222222222, -0.35333333333333333, -0.35444444444444445, -0.35444444444444445]","[0.23444444444444446, 0.23444444444444446, 0.23444444444444446, 0.23444444444444446, 0.23444444444444446, 0.23444444444444446, 0.23444444444444446, 0.23444444444444446, 0.23444444444444446, 0.23444444444444446, 0.23444444444444446, 0.23444444444444446, 0.23444444444444446, 0.23444444444444446, 0.23444444444444446, 0.23444444444444446, 0.23444444444444446, 0.23444444444444446, 0.24444444444444444, 0.29, 0.33444444444444443, 0.3466666666666667, 0.3488888888888889, 0.35333333333333333, 0.35444444444444445, 0.35444444444444445, 0.35444444444444445, 0.35444444444444445, 0.35444444444444445, 0.35444444444444445, 0.35444444444444445, 0.35444444444444445, 0.35444444444444445, 0.35444444444444445, 0.35444444444444445, 0.3488888888888889, 0.3433333333333333, 0.3388888888888889, 0.33666666666666667, 0.33555555555555555, 0.33444444444444443, 0.3322222222222222, 0.33, 0.3277777777777778, 0.3277777777777778, 0.3277777777777778, 0.3277777777777778, 0.3277777777777778, 0.3277777777777778, 0.3277777777777778, 0.3277777777777778, 0.3288888888888889, 0.3333333333333333, 0.33444444444444443, 0.33444444444444443, 0.33444444444444443, 0.33444444444444443, 0.33444444444444443, 0.33444444444444443, 0.33444444444444443, 0.33444444444444443, 0.33444444444444443, 0.33444444444444443, 0.33444444444444443, 0.3333333333333333, 0.3322222222222222, 0.33111111111111113, 0.33, 0.3288888888888889, 0.3288888888888889, 0.33555555555555555, 0.33555555555555555]","[0, 0, 0, 0, 0, 0, 0, 0, 0, 0, 0, 0, 0, 0, 0, 0, 0, 0, 0, 0, 0, 0, 0, 0, 0, 0, 0, 0, 0, 0, 0, 0, 0, 0, 0, 0, 0, 0, 0, 0, 0, 0, 0, 0, 0, 0, 0, 0, 0, 0, 0, 0, 0, 0, 0, 0, 0, 0, 0, 0, 0, 0, 0, 0, 0, 0, 0, 0, 0, 0, 1, 1]","[0, 0, 0, 0, 0, 0, 0, 0, 0, 0, 0, 0, 0, 0, 0, 0, 0, 0, 0, 0, 0, 0, 0, 0, 0, 0, 0, 0, 0, 0, 0, 0, 0, 0, 0, 0, 0, 0, 0, 0, 0, 0, 0, 0, 0, 0, 0, 0, 0, 0, 0, 0, 0, 0, 0, 0, 0, 0, 0, 0, 0, 0, 0, 0, 0, 0, 0, 0, 0, 0, 0, 0]","[0, 0, 0, 0, 0, 0, 0, 0, 0, 0, 0, 0, 0, 0, 0, 0, 0, 0, 0, 0, 0, 0, 0, 0, 0, 0, 0, 0, 0, 0, 0, 0, 0, 0, 0, 0, 0, 0, 0, 0, 0, 0, 0, 0, 0, 0, 0, 0, 0, 0, 0, 0, 0, 0, 0, 0, 0, 0, 0, 0, 0, 0, 0, 0, 0, 0, 0, 0, 0, 0, 0, 0]","[0.00018679100321605802, 0.04947012499906123, 0.09833770801196806, 0.14683041599346325, 0.19548666599439457, 0.24474875000305474, 0.29406570800347254, 0.34376662501017563, 0.393666582996957, 0.4427202910010237, 0.4916241250175517, 0.540653291012859, 0.5893098330125213, 0.6384476250095759, 0.6872666660055984, 0.7358435830101371, 0.7850348750071134, 0.8338430000003427, 0.8836199580109678, 0.9332807500031777, 0.9829371660016477, 1.0318062080186792, 1.081038583011832, 1.1305724999983795, 1.179432083008578, 1.228987957991194, 1.2781583330070134, 1.3276490409916732, 1.3769325829925947, 1.4263021660153754, 1.4753723750181962, 1.5242173750011716, 1.5732677080086432, 1.622274124994874, 1.6718919160193764, 1.7211745830136351, 1.7709166659915354, 1.8201536660199054, 1.8697066250024363, 1.919601291010622, 1.968937708006706, 2.018904583004769, 2.068325583008118, 2.11765674999333, 2.166935540997656, 2.2161615410004742, 2.265401583019411, 2.3150336660037283, 2.364200665993849, 2.4133612500154413, 2.463308416015934, 2.513743457995588, 2.563001375005115, 2.613281916012056, 2.663547666015802, 2.7131729579996318, 2.762814874993637, 2.812362208002014, 2.8619188330194447, 2.911724083009176, 2.961628000019118, 3.011554666009033, 3.06179195799632, 3.1123626659973525, 3.162349207996158, 3.2123332080082037, 3.2623612500028685, 3.3126800830068532, 3.362475333007751, 3.4125958750082646, 3.4627891659911256, 3.512753832997987]",0.0011775419989135116,203.67399874998955,,,,353140,001,2023-10-16_14h31.20.910,WythoffsHumanExp,2023.1.3,None,
7,0,7,0,,,,,,,,,,,,,,,,,,,,,,"[-0.4011111111111111, -0.4022222222222222, -0.4088888888888889, -0.41333333333333333, -0.41555555555555557, -0.41555555555555557, -0.41555555555555557, -0.41555555555555557, -0.41555555555555557]","[0.4288888888888889, 0.4288888888888889, 0.4311111111111111, 0.4311111111111111, 0.4311111111111111, 0.4311111111111111, 0.4311111111111111, 0.4288888888888889, 0.4288888888888889]","[0, 0, 0, 0, 0, 0, 0, 1, 1]","[0, 0, 0, 0, 0, 0, 0, 0, 0]","[0, 0, 0, 0, 0, 0, 0, 0, 0]","[0.00042170798406004906, 0.050059375003911555, 0.09914849998313002, 0.14843033300712705, 0.19736387499142438, 0.2464199170062784, 0.29531091699027456, 0.34525733298505656, 0.39444579198607244]",0.0328414999821689,219.85984837499564,,,,353140,001,2023-10-16_14h31.20.910,WythoffsHumanExp,2023.1.3,None,
8,0,8,0,,,,,,,,,,,,,,,,,,,,,,"[-0.22777777777777777, -0.22777777777777777, -0.22777777777777777, -0.22777777777777777, -0.22777777777777777, -0.22777777777777777, -0.22777777777777777, -0.22777777777777777, -0.22777777777777777, -0.22777777777777777, -0.22777777777777777, -0.22777777777777777, -0.22777777777777777, -0.22777777777777777, -0.22777777777777777, -0.22777777777777777, -0.22777777777777777, -0.2288888888888889, -0.2544444444444444, -0.31777777777777777, -0.35333333333333333, -0.36333333333333334, -0.36333333333333334, -0.36333333333333334, -0.3622222222222222, -0.35777777777777775, -0.3522222222222222, -0.34555555555555556, -0.33, -0.3188888888888889, -0.31444444444444447, -0.3111111111111111, -0.31, -0.3088888888888889, -0.3088888888888889, -0.3088888888888889, -0.3088888888888889, -0.3088888888888889, -0.3088888888888889, -0.3088888888888889, -0.3088888888888889, -0.3088888888888889, -0.3088888888888889, -0.3088888888888889, -0.3088888888888889, -0.3088888888888889, -0.3022222222222222, -0.29777777777777775, -0.29555555555555557, -0.29555555555555557, -0.29555555555555557, -0.29555555555555557, -0.29555555555555557, -0.29555555555555557, -0.29555555555555557, -0.29555555555555557, -0.29555555555555557, -0.29555555555555557, -0.29555555555555557, -0.29555555555555557, -0.29555555555555557, -0.29555555555555557, -0.29555555555555557, -0.29555555555555557, -0.29555555555555557, -0.29555555555555557, -0.29555555555555557, -0.29555555555555557, -0.29555555555555557, -0.29555555555555557, -0.29555555555555557, -0.29555555555555557, -0.29555555555555557, -0.29555555555555557, -0.29555555555555557, -0.29555555555555557, -0.29555555555555557, -0.29555555555555557, -0.29555555555555557, -0.29555555555555557, -0.29555555555555557, -0.29555555555555557, -0.29555555555555557, -0.29555555555555557, -0.29555555555555557, -0.29555555555555557, -0.29555555555555557, -0.29555555555555557, -0.29555555555555557, -0.29555555555555557, -0.29555555555555557, -0.29555555555555557, -0.29555555555555557, -0.29555555555555557, -0.29555555555555557, -0.29555555555555557, -0.29555555555555557, -0.29555555555555557, -0.29555555555555557, -0.29555555555555557, -0.29555555555555557, -0.29555555555555557, -0.29555555555555557, -0.29555555555555557, -0.2966666666666667, -0.2966666666666667, -0.2966666666666667, -0.2966666666666667]","[0.2966666666666667, 0.2966666666666667, 0.2966666666666667, 0.2966666666666667, 0.2966666666666667, 0.2966666666666667, 0.2966666666666667, 0.2966666666666667, 0.2966666666666667, 0.2966666666666667, 0.2966666666666667, 0.2966666666666667, 0.2966666666666667, 0.2966666666666667, 0.2966666666666667, 0.2966666666666667, 0.2966666666666667, 0.29888888888888887, 0.33111111111111113, 0.39666666666666667, 0.4311111111111111, 0.4411111111111111, 0.44222222222222224, 0.44222222222222224, 0.44, 0.43333333333333335, 0.4266666666666667, 0.42, 0.4066666666666667, 0.3977777777777778, 0.39444444444444443, 0.39111111111111113, 0.39, 0.39, 0.39, 0.39, 0.39, 0.39, 0.39, 0.39, 0.39, 0.39, 0.39, 0.39, 0.39, 0.39, 0.3933333333333333, 0.3977777777777778, 0.3988888888888889, 0.3988888888888889, 0.4, 0.4, 0.4, 0.4, 0.4, 0.4, 0.4, 0.4, 0.4, 0.4, 0.4, 0.4, 0.4, 0.4, 0.4, 0.4, 0.4, 0.4, 0.4, 0.4, 0.4, 0.4, 0.4, 0.4, 0.4, 0.4, 0.4, 0.4, 0.4, 0.4, 0.4, 0.4, 0.4, 0.4, 0.4, 0.4, 0.4, 0.4, 0.4, 0.4, 0.4, 0.4, 0.4, 0.4, 0.4, 0.4, 0.4, 0.4, 0.4, 0.4, 0.4, 0.4, 0.4, 0.4, 0.3988888888888889, 0.3977777777777778, 0.3977777777777778, 0.3977777777777778]","[0, 0, 0, 0, 0, 0, 0, 0, 0, 0, 0, 0, 0, 0, 0, 0, 0, 0, 0, 0, 0, 0, 0, 0, 0, 0, 0, 0, 0, 0, 0, 0, 0, 0, 0, 0, 0, 0, 0, 0, 0, 0, 0, 0, 0, 0, 0, 0, 0, 0, 0, 0, 0, 0, 0, 0, 0, 0, 0, 0, 0, 0, 0, 0, 0, 0, 0, 0, 0, 0, 0, 0, 0, 0, 0, 0, 0, 0, 0, 0, 0, 0, 0, 0, 0, 0, 0, 0, 0, 0, 0, 0, 0, 0, 0, 0, 0, 0, 0, 0, 0, 0, 0, 0, 0, 0, 1, 1]","[0, 0, 0, 0, 0, 0, 0, 0, 0, 0, 0, 0, 0, 0, 0, 0, 0, 0, 0, 0, 0, 0, 0, 0, 0, 0, 0, 0, 0, 0, 0, 0, 0, 0, 0, 0, 0, 0, 0, 0, 0, 0, 0, 0, 0, 0, 0, 0, 0, 0, 0, 0, 0, 0, 0, 0, 0, 0, 0, 0, 0, 0, 0, 0, 0, 0, 0, 0, 0, 0, 0, 0, 0, 0, 0, 0, 0, 0, 0, 0, 0, 0, 0, 0, 0, 0, 0, 0, 0, 0, 0, 0, 0, 0, 0, 0, 0, 0, 0, 0, 0, 0, 0, 0, 0, 0, 0, 0]","[0, 0, 0, 0, 0, 0, 0, 0, 0, 0, 0, 0, 0, 0, 0, 0, 0, 0, 0, 0, 0, 0, 0, 0, 0, 0, 0, 0, 0, 0, 0, 0, 0, 0, 0, 0, 0, 0, 0, 0, 0, 0, 0, 0, 0, 0, 0, 0, 0, 0, 0, 0, 0, 0, 0, 0, 0, 0, 0, 0, 0, 0, 0, 0, 0, 0, 0, 0, 0, 0, 0, 0, 0, 0, 0, 0, 0, 0, 0, 0, 0, 0, 0, 0, 0, 0, 0, 0, 0, 0, 0, 0, 0, 0, 0, 0, 0, 0, 0, 0, 0, 0, 0, 0, 0, 0, 0, 0]","[0.0002008749870583415, 0.049433874984970316, 0.09911266699782573, 0.14838487497763708, 0.1979592089774087, 0.24743195899645798, 0.2978039999725297, 0.34743333398364484, 0.39668116698157974, 0.4451191669795662, 0.4939475839782972, 0.542774916975759, 0.5914489999995567, 0.6399866249994375, 0.6882512919837609, 0.7371627089742105, 0.7863662089803256, 0.83559149998473, 0.8849358749866951, 0.9341179169714451, 0.9831801669788547, 1.0329073749890085, 1.0824731669854373, 1.1330760839919094, 1.1829307499865536, 1.2326588339929003, 1.2823087500000838, 1.332422166975448, 1.3826082089799456, 1.4329061669996008, 1.4827536669909023, 1.532619124976918, 1.5825767919886857, 1.631938624981558, 1.6809787089878228, 1.7304391669749748, 1.7796389589784667, 1.8281389169860631, 1.8768947499920614, 1.925257374998182, 1.9736034169909544, 2.021841666981345, 2.070391208981164, 2.118816624977626, 2.1686234169756062, 2.2202004169812426, 2.271676499978639, 2.322987249994185, 2.3748298339778557, 2.426379416981945, 2.47566366699175, 2.525216874986654, 2.5738093339896295, 2.62318983397563, 2.6720519999798853, 2.7205681249906775, 2.769534416991519, 2.818789333978202, 2.868333583988715, 2.916963333991589, 2.965976083971327, 3.0155739589827135, 3.065116958983708, 3.1147239589772653, 3.1640852089913096, 3.2132767089933623, 3.262654208985623, 3.3113409169891383, 3.3600790839991532, 3.4090721669781487, 3.4577469589712564, 3.5064969999948516, 3.5550782089994755, 3.6035933749808464, 3.6521677499986254, 3.7011653339723125, 3.749589916988043, 3.799271958996542, 3.848512458993355, 3.898188916995423, 3.9477107919810805, 3.997066541982349, 4.046283999981824, 4.095318833977217, 4.144580499996664, 4.194599833979737, 4.243456708994927, 4.291976833977969, 4.340607541991631, 4.389297124987934, 4.437663749995409, 4.4862916249840055, 4.534965958999237, 4.58363024998107, 4.6333101249765605, 4.683575708972057, 4.732722249988001, 4.781730249989778, 4.831094166991534, 4.880547791981371, 4.930390041990904, 4.979557291982928, 5.028850249975221, 5.078093833988532, 5.127606624999316, 5.176583374995971, 5.226197374984622, 5.275173958973028]",0.043337915994925424,244.54490483400878,,,,353140,001,2023-10-16_14h31.20.910,WythoffsHumanExp,2023.1.3,None,
9,0,9,0,,,,,,,,,,,,,,,,,,,,,,"[-0.4111111111111111, -0.4111111111111111, -0.4122222222222222, -0.41, -0.4088888888888889, -0.4066666666666667, -0.40555555555555556, -0.40555555555555556, -0.40555555555555556]","[0.42, 0.4211111111111111, 0.4211111111111111, 0.4211111111111111, 0.4211111111111111, 0.42, 0.4177777777777778, 0.4177777777777778, 0.4177777777777778]","[0, 0, 0, 0, 0, 0, 0, 1, 1]","[0, 0, 0, 0, 0, 0, 0, 0, 0]","[0, 0, 0, 0, 0, 0, 0, 0, 0]","[0.00042954200762324035, 0.05108987499261275, 0.1014295420027338, 0.1515949580061715, 0.2016725419962313, 0.25170887500280514, 0.3014783330145292, 0.3517880830040667, 0.40229433300555684]",0.009767207986442372,269.65333199998713,,,,353140,001,2023-10-16_14h31.20.910,WythoffsHumanExp,2023.1.3,None,
10,0,10,0,,,,,,,,,,,,,,,,,,,,,,"[-0.23222222222222222, -0.23222222222222222, -0.23222222222222222, -0.23222222222222222, -0.23222222222222222, -0.23222222222222222, -0.23222222222222222, -0.23222222222222222, -0.23222222222222222, -0.23222222222222222, -0.23222222222222222, -0.23222222222222222, -0.23222222222222222, -0.23222222222222222, -0.23222222222222222, -0.23222222222222222, -0.23222222222222222, -0.23222222222222222, -0.23222222222222222, -0.23222222222222222, -0.23222222222222222, -0.23222222222222222, -0.23222222222222222, -0.23222222222222222, -0.23222222222222222, -0.23222222222222222, -0.23222222222222222, -0.23222222222222222, -0.23222222222222222, -0.23222222222222222, -0.23222222222222222, -0.23222222222222222, -0.23222222222222222, -0.23222222222222222, -0.23222222222222222, -0.2611111111111111, -0.30777777777777776, -0.33111111111111113, -0.3322222222222222, -0.3244444444444444, -0.32222222222222224, -0.32222222222222224, -0.32222222222222224, -0.32222222222222224, -0.32222222222222224, -0.32222222222222224, -0.32222222222222224, -0.32222222222222224, -0.32222222222222224, -0.32222222222222224, -0.32222222222222224, -0.3288888888888889, -0.33555555555555555, -0.34, -0.3422222222222222, -0.3422222222222222]","[0.29333333333333333, 0.29333333333333333, 0.29333333333333333, 0.29333333333333333, 0.29333333333333333, 0.29333333333333333, 0.29333333333333333, 0.29333333333333333, 0.29333333333333333, 0.29333333333333333, 0.29333333333333333, 0.29333333333333333, 0.29333333333333333, 0.29333333333333333, 0.29333333333333333, 0.29333333333333333, 0.29333333333333333, 0.29333333333333333, 0.29333333333333333, 0.29333333333333333, 0.29333333333333333, 0.29333333333333333, 0.29333333333333333, 0.29333333333333333, 0.29333333333333333, 0.29333333333333333, 0.29333333333333333, 0.29333333333333333, 0.29333333333333333, 0.29333333333333333, 0.29333333333333333, 0.29333333333333333, 0.29333333333333333, 0.29333333333333333, 0.29333333333333333, 0.30333333333333334, 0.3233333333333333, 0.33555555555555555, 0.34, 0.3422222222222222, 0.3411111111111111, 0.34, 0.34, 0.34, 0.34, 0.34, 0.34, 0.34, 0.34, 0.34, 0.34, 0.34, 0.3422222222222222, 0.34555555555555556, 0.35, 0.35]","[0, 0, 0, 0, 0, 0, 0, 0, 0, 0, 0, 0, 0, 0, 0, 0, 0, 0, 0, 0, 0, 0, 0, 0, 0, 0, 0, 0, 0, 0, 0, 0, 0, 0, 0, 0, 0, 0, 0, 0, 0, 1, 1, 0, 0, 0, 0, 0, 0, 0, 0, 0, 0, 0, 1, 1]","[0, 0, 0, 0, 0, 0, 0, 0, 0, 0, 0, 0, 0, 0, 0, 0, 0, 0, 0, 0, 0, 0, 0, 0, 0, 0, 0, 0, 0, 0, 0, 0, 0, 0, 0, 0, 0, 0, 0, 0, 0, 0, 0, 0, 0, 0, 0, 0, 0, 0, 0, 0, 0, 0, 0, 0]","[0, 0, 0, 0, 0, 0, 0, 0, 0, 0, 0, 0, 0, 0, 0, 0, 0, 0, 0, 0, 0, 0, 0, 0, 0, 0, 0, 0, 0, 0, 0, 0, 0, 0, 0, 0, 0, 0, 0, 0, 0, 0, 0, 0, 0, 0, 0, 0, 0, 0, 0, 0, 0, 0, 0, 0]","[0.00020779200713150203, 0.04918800000450574, 0.09737925001536496, 0.14674870899762027, 0.19628012500470504, 0.2458085420075804, 0.2950320840172935, 0.3442134590004571, 0.3929877089976799, 0.4413103749975562, 0.48977612500311807, 0.5380345419980586, 0.5863654590211809, 0.6346305420156568, 0.6830037090112455, 0.7451424169994425, 0.7955184589955024, 0.8460288750065956, 0.8959802500030492, 0.9461633340106346, 0.9955713340023067, 1.0446702089975588, 1.0941597500059288, 1.1431460840103682, 1.191996042005485, 1.2403322090103757, 1.2886308750021271, 1.336907417018665, 1.385694541997509, 1.4342427920200862, 1.4827663339965511, 1.5312392500054557, 1.5801884999964386, 1.629461167001864, 1.680029667011695, 1.7326309170166496, 1.7852007090114057, 1.838215209019836, 1.8905820000218228, 1.942731167015154, 1.9955194170179311, 2.048109209019458, 2.097978667006828, 2.1474845000193454, 2.197126417013351, 2.246914334013127, 2.296086375019513, 2.3457676249963697, 2.395162166998489, 2.4443174590123817, 2.4932162089971825, 2.5430730000080075, 2.5930919170205016, 2.6435870840214193, 2.693357667012606, 2.7468054170021787]",0.0479592909978237,290.4462631249917,,,,353140,001,2023-10-16_14h31.20.910,WythoffsHumanExp,2023.1.3,None,
11,0,11,0,,,,,,,,,,,,,,,,,,,,,,"[-0.4022222222222222, -0.4033333333333333, -0.4111111111111111, -0.41333333333333333, -0.41333333333333333, -0.41333333333333333, -0.41333333333333333, -0.41333333333333333, -0.41333333333333333, -0.41333333333333333]","[0.4, 0.4022222222222222, 0.4122222222222222, 0.41555555555555557, 0.4166666666666667, 0.4177777777777778, 0.42, 0.4211111111111111, 0.4211111111111111, 0.4211111111111111]","[0, 0, 0, 0, 0, 0, 0, 0, 1, 1]","[0, 0, 0, 0, 0, 0, 0, 0, 0, 0]","[0, 0, 0, 0, 0, 0, 0, 0, 0, 0]","[0.000477084016893059, 0.05037633402389474, 0.0996612920134794, 0.14901412499602884, 0.19829554200987332, 0.24773254201863892, 0.29692037499626167, 0.3462665840052068, 0.3962840840104036, 0.44556012502289377]",0.022818083001766354,306.11081866698805,,,,353140,001,2023-10-16_14h31.20.910,WythoffsHumanExp,2023.1.3,None,
12,0,12,0,,,,,,,,,,,,,,,,,,,,,,"[-0.28444444444444444, -0.28444444444444444, -0.28444444444444444, -0.28444444444444444, -0.28444444444444444, -0.28444444444444444, -0.28444444444444444, -0.28444444444444444, -0.28444444444444444, -0.28444444444444444, -0.28444444444444444, -0.28444444444444444, -0.28444444444444444, -0.2877777777777778, -0.33, -0.3788888888888889, -0.40444444444444444, -0.4166666666666667, -0.4222222222222222, -0.42333333333333334, -0.42333333333333334, -0.42333333333333334, -0.42333333333333334, -0.42333333333333334]","[0.057777777777777775, 0.057777777777777775, 0.057777777777777775, 0.057777777777777775, 0.057777777777777775, 0.057777777777777775, 0.057777777777777775, 0.057777777777777775, 0.057777777777777775, 0.057777777777777775, 0.057777777777777775, 0.057777777777777775, 0.057777777777777775, 0.06666666666666667, 0.16777777777777778, 0.29555555555555557, 0.35555555555555557, 0.37333333333333335, 0.38333333333333336, 0.3933333333333333, 0.4122222222222222, 0.4222222222222222, 0.42333333333333334, 0.42333333333333334]","[0, 0, 0, 0, 0, 0, 0, 0, 0, 0, 0, 0, 0, 0, 0, 0, 0, 0, 0, 0, 0, 0, 1, 1]","[0, 0, 0, 0, 0, 0, 0, 0, 0, 0, 0, 0, 0, 0, 0, 0, 0, 0, 0, 0, 0, 0, 0, 0]","[0, 0, 0, 0, 0, 0, 0, 0, 0, 0, 0, 0, 0, 0, 0, 0, 0, 0, 0, 0, 0, 0, 0, 0]","[0.0002092909999191761, 0.04948824999155477, 0.09800195798743516, 0.14751325000543147, 0.19640674997936003, 0.24572145799174905, 0.295265875000041, 0.34461458298028447, 0.39392904099076986, 0.4433724999835249, 0.49275920799118467, 0.5419464999868069, 0.5911591659823898, 0.640618125005858, 0.6901115409855265, 0.739712790993508, 0.7892164579825476, 0.8389703749853652, 0.8889284159813542, 0.9389162909938022, 0.9887224579870235, 1.03797524998663, 1.0875708329840563, 1.1358658749959432]",0.008042417000979185,318.4806298750045,,,,353140,001,2023-10-16_14h31.20.910,WythoffsHumanExp,2023.1.3,None,
13,0,13,0,,,,,,,,,,,,,,,,,,,,,,"[-0.13777777777777778, -0.13777777777777778, -0.13777777777777778, -0.13777777777777778, -0.13777777777777778, -0.16333333333333333, -0.2222222222222222, -0.29888888888888887, -0.3422222222222222, -0.3711111111111111, -0.3844444444444444, -0.39222222222222225, -0.40444444444444444, -0.41333333333333333, -0.41333333333333333]","[0.29555555555555557, 0.29555555555555557, 0.29555555555555557, 0.29555555555555557, 0.29555555555555557, 0.31222222222222223, 0.35333333333333333, 0.41, 0.42444444444444446, 0.4255555555555556, 0.4255555555555556, 0.4255555555555556, 0.42444444444444446, 0.42444444444444446, 0.42444444444444446]","[0, 0, 0, 0, 0, 0, 0, 0, 0, 0, 0, 0, 0, 1, 1]","[0, 0, 0, 0, 0, 0, 0, 0, 0, 0, 0, 0, 0, 0, 0]","[0, 0, 0, 0, 0, 0, 0, 0, 0, 0, 0, 0, 0, 0, 0]","[0.00021633299184031785, 0.05016637500375509, 0.09934720798628405, 0.14854870800627396, 0.1976994579890743, 0.24722099999780767, 0.2969676250068005, 0.3465000829892233, 0.3955485410115216, 0.44454520801082253, 0.49351770800421946, 0.5426849579962436, 0.5921336660103407, 0.6422331659996416, 0.6912448329967447]",0.03566783299902454,332.062511791999,,,,353140,001,2023-10-16_14h31.20.910,WythoffsHumanExp,2023.1.3,None,
14,0,14,0,,,,,,,,,,,,,,,,,,,,,,"[-0.3433333333333333, -0.3433333333333333, -0.3433333333333333, -0.3433333333333333, -0.3433333333333333, -0.3433333333333333, -0.3433333333333333, -0.3433333333333333, -0.3433333333333333, -0.3433333333333333, -0.3433333333333333, -0.3433333333333333, -0.3433333333333333, -0.3433333333333333, -0.35, -0.3622222222222222, -0.37666666666666665, -0.3788888888888889, -0.37777777777777777, -0.37777777777777777, -0.37666666666666665, -0.37666666666666665, -0.37666666666666665, -0.37666666666666665, -0.37666666666666665, -0.37666666666666665, -0.37555555555555553, -0.3688888888888889, -0.35333333333333333, -0.3488888888888889, -0.3477777777777778, -0.3511111111111111, -0.35777777777777775, -0.36333333333333334, -0.3655555555555556, -0.3655555555555556, -0.3655555555555556, -0.3655555555555556, -0.3655555555555556, -0.3655555555555556, -0.3655555555555556, -0.3655555555555556, -0.3655555555555556, -0.3655555555555556, -0.3655555555555556, -0.3655555555555556, -0.3655555555555556, -0.3655555555555556, -0.3655555555555556, -0.3655555555555556]","[0.22777777777777777, 0.22777777777777777, 0.22777777777777777, 0.22777777777777777, 0.22777777777777777, 0.22777777777777777, 0.22777777777777777, 0.22777777777777777, 0.22777777777777777, 0.22777777777777777, 0.22777777777777777, 0.22777777777777777, 0.22777777777777777, 0.22777777777777777, 0.25, 0.2822222222222222, 0.33, 0.3522222222222222, 0.35777777777777775, 0.35777777777777775, 0.35777777777777775, 0.35555555555555557, 0.35333333333333333, 0.3522222222222222, 0.3511111111111111, 0.35, 0.3488888888888889, 0.3466666666666667, 0.3422222222222222, 0.34, 0.34, 0.3411111111111111, 0.34555555555555556, 0.3488888888888889, 0.3511111111111111, 0.3511111111111111, 0.3511111111111111, 0.3511111111111111, 0.3511111111111111, 0.3511111111111111, 0.3511111111111111, 0.3511111111111111, 0.3511111111111111, 0.3511111111111111, 0.3511111111111111, 0.3511111111111111, 0.3511111111111111, 0.3511111111111111, 0.3511111111111111, 0.3511111111111111]","[0, 0, 0, 0, 0, 0, 0, 0, 0, 0, 0, 0, 0, 0, 0, 0, 0, 0, 0, 0, 0, 0, 0, 0, 0, 0, 0, 0, 0, 0, 0, 0, 0, 0, 0, 0, 0, 0, 0, 0, 0, 0, 0, 0, 0, 0, 0, 0, 1, 1]","[0, 0, 0, 0, 0, 0, 0, 0, 0, 0, 0, 0, 0, 0, 0, 0, 0, 0, 0, 0, 0, 0, 0, 0, 0, 0, 0, 0, 0, 0, 0, 0, 0, 0, 0, 0, 0, 0, 0, 0, 0, 0, 0, 0, 0, 0, 0, 0, 0, 0]","[0, 0, 0, 0, 0, 0, 0, 0, 0, 0, 0, 0, 0, 0, 0, 0, 0, 0, 0, 0, 0, 0, 0, 0, 0, 0, 0, 0, 0, 0, 0, 0, 0, 0, 0, 0, 0, 0, 0, 0, 0, 0, 0, 0, 0, 0, 0, 0, 0, 0]","[0.00021579198073595762, 0.049591666989726946, 0.09800174998235889, 0.1469560419791378, 0.1958503339847084, 0.24508549997699447, 0.29452458399464376, 0.3436857089982368, 0.3931681669782847, 0.44261154197738506, 0.4919732499984093, 0.542099458980374, 0.5911245419993065, 0.6401427919918206, 0.6893874169909395, 0.7387762499856763, 0.7881201249838341, 0.8380200419924222, 0.8875559169973712, 0.9375684589904267, 0.9871519589796662, 1.0363220419967547, 1.0857821249810513, 1.1349124999833293, 1.184161041979678, 1.2337166669894941, 1.2832178749958985, 1.3331724999879953, 1.3826136249990668, 1.4323180840001442, 1.4817339169967454, 1.5316081249911804, 1.581755291990703, 1.6313272919796873, 1.681229749985505, 1.7299229589989409, 1.8045409589831252, 1.855732124997303, 1.9061746249790303, 1.9561204999918118, 2.006729249987984, 2.0564769170014188, 2.1066500000015367, 2.156663417001255, 2.20541999998386, 2.254443083977094, 2.303201041999273, 2.3520855419919826, 2.4018734589917585, 2.4511307499778923]",0.04553762500290759,348.4846062499855,,,,353140,001,2023-10-16_14h31.20.910,WythoffsHumanExp,2023.1.3,None,
15,0,15,0,,,,,,,,,,,,,,,,,,,,,,"[-0.39111111111111113, -0.39111111111111113, -0.39111111111111113, -0.39111111111111113, -0.39111111111111113, -0.39111111111111113, -0.39111111111111113, -0.39111111111111113, -0.39111111111111113, -0.39111111111111113, -0.39111111111111113, -0.39111111111111113, -0.39111111111111113, -0.39666666666666667, -0.3988888888888889, -0.4, -0.4]","[0.44, 0.44, 0.44, 0.44, 0.44, 0.44, 0.44, 0.44, 0.44, 0.44, 0.44, 0.44, 0.44, 0.43222222222222223, 0.4288888888888889, 0.42777777777777776, 0.42777777777777776]","[0, 0, 0, 0, 0, 0, 0, 0, 0, 0, 0, 0, 0, 0, 0, 0, 1]","[0, 0, 0, 0, 0, 0, 0, 0, 0, 0, 0, 0, 0, 0, 0, 0, 0]","[0, 0, 0, 0, 0, 0, 0, 0, 0, 0, 0, 0, 0, 0, 0, 0, 0]","[0.0002318330225534737, 0.048695541016058996, 0.09762850002152845, 0.14676587501890026, 0.19523887502145953, 0.24295979100861587, 0.2914957080211025, 0.34016387502197176, 0.38886166602605954, 0.4375781250128057, 0.48633441602578387, 0.5346787910093553, 0.5834667500166688, 0.6338088750198949, 0.683642583026085, 0.7339401250064839, 0.7835501250228845]",0.011519333987962455,355.00303808398894,,,,353140,001,2023-10-16_14h31.20.910,WythoffsHumanExp,2023.1.3,None,
16,0,16,0,,,,,,,,,,,,,,,,,,,,,,"[-0.39111111111111113, -0.39111111111111113, -0.39111111111111113, -0.39111111111111113, -0.39111111111111113, -0.39111111111111113, -0.39111111111111113, -0.39666666666666667, -0.4066666666666667, -0.41333333333333333, -0.41333333333333333, -0.41333333333333333, -0.41444444444444445, -0.41444444444444445, -0.41555555555555557, -0.41555555555555557]","[0.36333333333333334, 0.36333333333333334, 0.36333333333333334, 0.36333333333333334, 0.36333333333333334, 0.36333333333333334, 0.36333333333333334, 0.36666666666666664, 0.38, 0.39222222222222225, 0.3933333333333333, 0.3933333333333333, 0.3933333333333333, 0.39666666666666667, 0.4033333333333333, 0.4033333333333333]","[0, 0, 0, 0, 0, 0, 0, 0, 0, 0, 0, 0, 0, 0, 1, 1]","[0, 0, 0, 0, 0, 0, 0, 0, 0, 0, 0, 0, 0, 0, 0, 0]","[0, 0, 0, 0, 0, 0, 0, 0, 0, 0, 0, 0, 0, 0, 0, 0]","[0.00021899997955188155, 0.05011420798837207, 0.09932216699235141, 0.1484678749984596, 0.19773495799745433, 0.24695208299090154, 0.2965536669944413, 0.346150083001703, 0.3955154169816524, 0.4449808329809457, 0.49396854199585505, 0.5437404580006842, 0.5940383329871111, 0.6438460419885814, 0.6934475000016391, 0.7423661669890862]",0.04051958298077807,374.19201233400963,,,,353140,001,2023-10-16_14h31.20.910,WythoffsHumanExp,2023.1.3,None,
17,0,17,0,,,,,,,,,,,,,,,,,,,,,,"[-0.014444444444444444, -0.014444444444444444, -0.014444444444444444, -0.014444444444444444, -0.014444444444444444, -0.014444444444444444, -0.014444444444444444, -0.014444444444444444, -0.014444444444444444, -0.014444444444444444, -0.014444444444444444, -0.014444444444444444, -0.03777777777777778, -0.21555555555555556, -0.4033333333333333, -0.45555555555555555, -0.45555555555555555, -0.45555555555555555, -0.45555555555555555, -0.45222222222222225, -0.4288888888888889, -0.40444444444444444, -0.4, -0.4]","[-0.0033333333333333335, -0.0033333333333333335, -0.0033333333333333335, -0.0033333333333333335, -0.0033333333333333335, -0.0033333333333333335, -0.0033333333333333335, -0.0033333333333333335, -0.0033333333333333335, -0.0033333333333333335, -0.0033333333333333335, -0.0033333333333333335, 0.0011111111111111111, 0.12555555555555556, 0.31333333333333335, 0.3811111111111111, 0.3811111111111111, 0.3811111111111111, 0.3811111111111111, 0.38666666666666666, 0.4111111111111111, 0.4211111111111111, 0.42, 0.42]","[0, 0, 0, 0, 0, 0, 0, 0, 0, 0, 0, 0, 0, 0, 0, 0, 0, 0, 0, 0, 0, 0, 0, 1]","[0, 0, 0, 0, 0, 0, 0, 0, 0, 0, 0, 0, 0, 0, 0, 0, 0, 0, 0, 0, 0, 0, 0, 0]","[0, 0, 0, 0, 0, 0, 0, 0, 0, 0, 0, 0, 0, 0, 0, 0, 0, 0, 0, 0, 0, 0, 0, 0]","[0.00022691700723953545, 0.0492811250151135, 0.09829749999335036, 0.14718916700803675, 0.1965004579978995, 0.2458821670152247, 0.29551320799509995, 0.34660604200325906, 0.39647929201601073, 0.44590233301278204, 0.4954244580003433, 0.5454968750127591, 0.5962869579961989, 0.6467764580156654, 0.6970426670159213, 0.7466067920031492, 0.7964140830154065, 0.8464300830091815, 0.8969747500086669, 0.9473292500188109, 0.9969645829987712, 1.0472349580086302, 1.09641837500385, 1.146777292015031]",0.012308541976381093,385.7026801669854,,,,353140,001,2023-10-16_14h31.20.910,WythoffsHumanExp,2023.1.3,None,
18,0,18,0,,,,,,,,,,,,,,,,,,,,,,"[-0.28444444444444444, -0.28444444444444444, -0.28444444444444444, -0.28444444444444444, -0.28444444444444444, -0.28444444444444444, -0.28444444444444444, -0.28444444444444444, -0.28444444444444444, -0.28444444444444444, -0.28888888888888886, -0.33111111111111113, -0.39222222222222225, -0.4122222222222222, -0.41444444444444445, -0.41333333333333333, -0.39555555555555555, -0.37333333333333335, -0.3511111111111111, -0.3411111111111111, -0.3388888888888889, -0.3388888888888889, -0.3388888888888889, -0.3388888888888889, -0.3388888888888889, -0.3388888888888889, -0.3388888888888889, -0.3388888888888889, -0.3388888888888889, -0.3388888888888889, -0.3388888888888889, -0.3388888888888889, -0.3388888888888889, -0.3388888888888889, -0.3388888888888889, -0.3388888888888889, -0.3388888888888889, -0.3388888888888889, -0.3388888888888889, -0.3377777777777778, -0.33444444444444443, -0.32666666666666666, -0.3211111111111111, -0.31666666666666665, -0.31333333333333335, -0.31222222222222223, -0.31222222222222223, -0.31222222222222223, -0.31222222222222223, -0.31222222222222223, -0.31222222222222223, -0.31222222222222223, -0.31222222222222223, -0.3111111111111111, -0.3111111111111111, -0.31444444444444447, -0.31666666666666665, -0.3188888888888889, -0.32, -0.32, -0.32, -0.3211111111111111, -0.32222222222222224, -0.32222222222222224, -0.32222222222222224, -0.32222222222222224, -0.3233333333333333, -0.3233333333333333, -0.3233333333333333, -0.3233333333333333, -0.3233333333333333, -0.32666666666666666, -0.32666666666666666, -0.32666666666666666]","[0.23222222222222222, 0.23222222222222222, 0.23222222222222222, 0.23222222222222222, 0.23222222222222222, 0.23222222222222222, 0.23222222222222222, 0.23222222222222222, 0.23222222222222222, 0.23222222222222222, 0.24333333333333335, 0.3233333333333333, 0.45222222222222225, 0.4911111111111111, 0.49, 0.47, 0.43444444444444447, 0.4011111111111111, 0.37555555555555553, 0.3655555555555556, 0.36333333333333334, 0.3611111111111111, 0.35888888888888887, 0.35888888888888887, 0.35888888888888887, 0.35777777777777775, 0.35777777777777775, 0.35777777777777775, 0.35777777777777775, 0.35777777777777775, 0.35777777777777775, 0.35777777777777775, 0.35777777777777775, 0.35777777777777775, 0.35777777777777775, 0.35777777777777775, 0.35777777777777775, 0.35777777777777775, 0.35888888888888887, 0.35888888888888887, 0.3622222222222222, 0.3688888888888889, 0.37444444444444447, 0.37777777777777777, 0.38333333333333336, 0.38555555555555554, 0.38555555555555554, 0.3811111111111111, 0.38, 0.38, 0.38, 0.38, 0.38, 0.3811111111111111, 0.3811111111111111, 0.37666666666666665, 0.37222222222222223, 0.37, 0.3688888888888889, 0.36666666666666664, 0.3655555555555556, 0.36333333333333334, 0.3622222222222222, 0.36, 0.35888888888888887, 0.35777777777777775, 0.35777777777777775, 0.35777777777777775, 0.35777777777777775, 0.35777777777777775, 0.35777777777777775, 0.35777777777777775, 0.35777777777777775, 0.35777777777777775]","[0, 0, 0, 0, 0, 0, 0, 0, 0, 0, 0, 0, 0, 0, 0, 0, 0, 0, 0, 0, 0, 0, 0, 0, 0, 0, 0, 0, 0, 0, 0, 0, 0, 0, 0, 0, 0, 0, 0, 0, 0, 0, 0, 0, 0, 0, 0, 0, 0, 0, 0, 0, 0, 0, 0, 0, 0, 0, 0, 0, 0, 0, 0, 0, 0, 0, 0, 0, 0, 0, 0, 0, 1, 1]","[0, 0, 0, 0, 0, 0, 0, 0, 0, 0, 0, 0, 0, 0, 0, 0, 0, 0, 0, 0, 0, 0, 0, 0, 0, 0, 0, 0, 0, 0, 0, 0, 0, 0, 0, 0, 0, 0, 0, 0, 0, 0, 0, 0, 0, 0, 0, 0, 0, 0, 0, 0, 0, 0, 0, 0, 0, 0, 0, 0, 0, 0, 0, 0, 0, 0, 0, 0, 0, 0, 0, 0, 0, 0]","[0, 0, 0, 0, 0, 0, 0, 0, 0, 0, 0, 0, 0, 0, 0, 0, 0, 0, 0, 0, 0, 0, 0, 0, 0, 0, 0, 0, 0, 0, 0, 0, 0, 0, 0, 0, 0, 0, 0, 0, 0, 0, 0, 0, 0, 0, 0, 0, 0, 0, 0, 0, 0, 0, 0, 0, 0, 0, 0, 0, 0, 0, 0, 0, 0, 0, 0, 0, 0, 0, 0, 0, 0, 0]","[0.00023391700233332813, 0.049463250004919246, 0.09821949998149648, 0.14702979198773392, 0.19598083398886956, 0.2452957920031622, 0.29473970900289714, 0.34374008400482126, 0.39227424998534843, 0.4411714169837069, 0.49034904199652374, 0.5404934999824036, 0.5902592089842074, 0.6401684589800425, 0.6896317089849617, 0.7393563340010587, 0.788553749996936, 0.8375580419960897, 0.8869179589964915, 0.9370682500011753, 0.9872887499805074, 1.0372576669906266, 1.0865441669884603, 1.1365955419896636, 1.186363666987745, 1.2359765000001062, 1.2858487089979462, 1.336599792004563, 1.3867262919957284, 1.4361614589870442, 1.4854374169954099, 1.5348999169946183, 1.5841996670060325, 1.6339834170066752, 1.68277358400519, 1.7317328339850064, 1.7800880839931779, 1.8285385000053793, 1.8775206669815816, 1.9267520839930512, 1.9757617090072017, 2.024709333985811, 2.0735255839827005, 2.1225221249915194, 2.1717952089966275, 2.221738458989421, 2.2858872920041904, 2.3368045419920236, 2.3873109169944655, 2.437391666986514, 2.487396958982572, 2.53656866698293, 2.586458584002685, 2.6361235000076704, 2.68592724998598, 2.736235083983047, 2.7866891250014305, 2.8367452090024017, 2.886514041980263, 2.936919375002617, 2.9869518339983188, 3.0374448339862283, 3.087348375003785, 3.1370294590014964, 3.186753874993883, 3.2360805420030374, 3.2858272089797538, 3.335779499990167, 3.3857536669820547, 3.435463792004157, 3.4853094590071123, 3.535798958997475, 3.586277208989486, 3.6365269999951124]",0.030629999993834645,406.06341395899653,,,,353140,001,2023-10-16_14h31.20.910,WythoffsHumanExp,2023.1.3,None,
19,0,19,0,,,,,,,,,,,,,,,,,,,,,,"[-0.4166666666666667, -0.4255555555555556, -0.44222222222222224, -0.44333333333333336, -0.44333333333333336, -0.44333333333333336, -0.44333333333333336, -0.44333333333333336, -0.44333333333333336, -0.44333333333333336, -0.44222222222222224, -0.44222222222222224, -0.44222222222222224, -0.44222222222222224, -0.44222222222222224, -0.44222222222222224, -0.43, -0.41888888888888887, -0.4166666666666667, -0.4166666666666667]","[0.4, 0.40555555555555556, 0.41888888888888887, 0.42444444444444446, 0.42444444444444446, 0.42444444444444446, 0.42444444444444446, 0.4222222222222222, 0.4211111111111111, 0.4211111111111111, 0.42, 0.42, 0.42, 0.42, 0.42, 0.42, 0.41888888888888887, 0.41555555555555557, 0.41555555555555557, 0.41555555555555557]","[0, 0, 0, 0, 0, 0, 0, 1, 1, 1, 0, 0, 0, 0, 0, 0, 0, 0, 1, 1]","[0, 0, 0, 0, 0, 0, 0, 0, 0, 0, 0, 0, 0, 0, 0, 0, 0, 0, 0, 0]","[0, 0, 0, 0, 0, 0, 0, 0, 0, 0, 0, 0, 0, 0, 0, 0, 0, 0, 0, 0]","[0.0006451249937526882, 0.068268667004304, 0.11942129200906493, 0.1699345000088215, 0.2203195420152042, 0.270376208005473, 0.3209033329912927, 0.3726842920004856, 0.422851792012807, 0.4717752500146162, 0.5212975419999566, 0.5698891670035664, 0.6197150830121245, 0.6691437920089811, 0.7184845829906408, 0.7677276670001447, 0.8172586250002496, 0.8670287920103874, 0.9172274169977754, 0.9671229170053266]",0.03920991701306775,417.9983967090084,,,,353140,001,2023-10-16_14h31.20.910,WythoffsHumanExp,2023.1.3,None,
,,,,,,,,,,,,,,,,,,,,,,,,,,,,,,,,,419.358172459004,,,353140,001,2023-10-16_14h31.20.910,WythoffsHumanExp,2023.1.3,None,
,,,,,,,,,,,,,,,,,,,,,,,,,,,,,,,,,,,,353140,001,2023-10-16_14h31.20.910,WythoffsHumanExp,2023.1.3,None,
,,,,,,,,,,,,,,,,,,,,,,,,,,,,,,,,,,427.4168201669818,,353140,001,2023-10-16_14h31.20.910,WythoffsHumanExp,2023.1.3,None,
,,,,,,,,,,,,,,,,,,,,,,,,,,,,,,,,,,,787.9426492089988,353140,001,2023-10-16_14h31.20.910,WythoffsHumanExp,2023.1.3,None,
,,,,,,,,,,,,,,,,,,,,,,,,,"[-0.35888888888888887, -0.35888888888888887, -0.35888888888888887, -0.35888888888888887, -0.35888888888888887, -0.35888888888888887, -0.35888888888888887, -0.35888888888888887, -0.35888888888888887, -0.3622222222222222, -0.37, -0.3877777777777778, -0.4033333333333333, -0.4088888888888889, -0.4122222222222222, -0.41333333333333333, -0.41444444444444445, -0.41444444444444445, -0.41444444444444445]","[0.3011111111111111, 0.3011111111111111, 0.3011111111111111, 0.3011111111111111, 0.3011111111111111, 0.3011111111111111, 0.3011111111111111, 0.3011111111111111, 0.3011111111111111, 0.3055555555555556, 0.3233333333333333, 0.3622222222222222, 0.39111111111111113, 0.40444444444444444, 0.4122222222222222, 0.41888888888888887, 0.42444444444444446, 0.42777777777777776, 0.42777777777777776]","[0, 0, 0, 0, 0, 0, 0, 0, 0, 0, 0, 0, 0, 0, 0, 0, 0, 1, 1]","[0, 0, 0, 0, 0, 0, 0, 0, 0, 0, 0, 0, 0, 0, 0, 0, 0, 0, 0]","[0, 0, 0, 0, 0, 0, 0, 0, 0, 0, 0, 0, 0, 0, 0, 0, 0, 0, 0]","[0.0003273329930379987, 0.04941466698073782, 0.097874667000724, 0.14676995799527504, 0.21109008300118148, 0.2610413329966832, 0.31090179199236445, 0.36037675000261515, 0.4104463749972638, 0.4606829579861369, 0.5111629169841763, 0.5607248749874998, 0.6102434579806868, 0.6596849579946138, 0.7091077499790117, 0.7589813329977915, 0.8083652499772143, 0.8586519169912208, 0.9079998749948572]",0.042480167001485825,1110.619419374998,,,,,,,,,,
