practice_games.thisRepN,practice_games.thisTrialN,practice_games.thisN,practice_games.thisIndex,practice_turns.thisRepN,practice_turns.thisTrialN,practice_turns.thisN,practice_turns.thisIndex,games.thisRepN,games.thisTrialN,games.thisN,games.thisIndex,turns.thisRepN,turns.thisTrialN,turns.thisN,turns.thisIndex,intervention_games.thisRepN,intervention_games.thisTrialN,intervention_games.thisN,intervention_games.thisIndex,intervention_moves.thisRepN,intervention_moves.thisTrialN,intervention_moves.thisN,intervention_moves.thisIndex,more_games.thisRepN,more_games.thisTrialN,more_games.thisN,more_games.thisIndex,more_turns.thisRepN,more_turns.thisTrialN,more_turns.thisN,more_turns.thisIndex,section_0_text.started,mouse.started,mouse.x,mouse.y,mouse.leftButton,mouse.midButton,mouse.rightButton,mouse.time,status_text.started,section_1_text.started,imagine_text.started,section_2_text.started,section_3_text.started,end_text.started,participant,session,date,expName,psychopyVersion,frameRate,
,,,,,,,,,,,,,,,,,,,,,,,,,,,,,,,,,,,,,,,,,,,,,,7,14,2023-10-30_19h03.58.138,WythoffsHumanExp,2023.1.3,None,
,,,,,,,,,,,,,,,,,,,,,,,,,,,,,,,,,,,,,,,,,,,,,,7,14,2023-10-30_19h03.58.138,WythoffsHumanExp,2023.1.3,None,
,,,,,,,,,,,,,,,,,,,,,,,,,,,,,,,,57.20628116700391,,,,,,,,,,,,,,7,14,2023-10-30_19h03.58.138,WythoffsHumanExp,2023.1.3,None,
,,,,,,,,,,,,,,,,,,,,,,,,,,,,,,,,,0.011816957994597033,"[0.0, 0.0, 0.0, 0.0, 0.0, 0.0, -0.01, -0.03888888888888889, -0.12777777777777777, -0.17888888888888888, -0.17888888888888888, -0.17888888888888888, -0.17888888888888888, -0.17888888888888888, -0.17888888888888888, -0.18777777777777777, -0.23333333333333334, -0.28555555555555556, -0.33555555555555555, -0.35777777777777775, -0.36333333333333334, -0.36777777777777776, -0.38222222222222224, -0.3977777777777778, -0.40555555555555556, -0.40555555555555556]","[0.0, 0.0, 0.0, 0.0, 0.0, 0.0, 0.027777777777777776, 0.06444444444444444, 0.14444444444444443, 0.20777777777777778, 0.20777777777777778, 0.20777777777777778, 0.20777777777777778, 0.20777777777777778, 0.20777777777777778, 0.2111111111111111, 0.24333333333333335, 0.2788888888888889, 0.31333333333333335, 0.3411111111111111, 0.3511111111111111, 0.3566666666666667, 0.3711111111111111, 0.39111111111111113, 0.4033333333333333, 0.4033333333333333]","[0, 0, 0, 0, 0, 0, 0, 0, 0, 0, 0, 0, 0, 0, 0, 0, 0, 0, 0, 0, 0, 0, 0, 0, 1, 1]","[0, 0, 0, 0, 0, 0, 0, 0, 0, 0, 0, 0, 0, 0, 0, 0, 0, 0, 0, 0, 0, 0, 0, 0, 0, 0]","[0, 0, 0, 0, 0, 0, 0, 0, 0, 0, 0, 0, 0, 0, 0, 0, 0, 0, 0, 0, 0, 0, 0, 0, 0, 0]","[0.00019916600285796449, 0.049564000000827946, 0.09859433300152887, 0.14788166600192199, 0.1970576660023653, 0.24638675000460353, 0.2956150410027476, 0.3448080829984974, 0.39413470800354844, 0.4431164580018958, 0.4917065000045113, 0.5404632499994477, 0.5888931660010712, 0.6385911250035861, 0.6885923329973593, 0.7385473750036908, 0.7883623329980765, 0.8387491250032326, 0.8888321249978617, 0.9391607910001767, 0.9891232910013059, 1.0388172079983633, 1.0884415410037036, 1.1386875829994096, 1.1897744579982827, 1.2401197500003036]",119.53248504200019,120.77031112500117,,,,,7,14,2023-10-30_19h03.58.138,WythoffsHumanExp,2023.1.3,None,
,,,,,,,,0,0,0,0,,,,,,,,,,,,,,,,,,,,,,0.0030909590059309267,"[0.0, 0.0, 0.0, 0.0, 0.0, 0.0, 0.008888888888888889, 0.008888888888888889, 0.008888888888888889, 0.008888888888888889, 0.008888888888888889, 0.008888888888888889, 0.008888888888888889, 0.008888888888888889, -0.0077777777777777776, -0.05555555555555555, -0.15555555555555556, -0.21555555555555556, -0.24444444444444444, -0.2677777777777778, -0.2788888888888889, -0.28444444444444444, -0.2877777777777778, -0.28888888888888886, -0.29, -0.2911111111111111, -0.2911111111111111, -0.29444444444444445, -0.3022222222222222, -0.3111111111111111, -0.31555555555555553, -0.31666666666666665, -0.31666666666666665, -0.31666666666666665, -0.31666666666666665, -0.31666666666666665, -0.31666666666666665, -0.31666666666666665, -0.31666666666666665, -0.31666666666666665, -0.31666666666666665, -0.31666666666666665, -0.31666666666666665, -0.31666666666666665, -0.31666666666666665, -0.31666666666666665, -0.31666666666666665, -0.31666666666666665, -0.32, -0.34, -0.3522222222222222, -0.35888888888888887, -0.3611111111111111, -0.3611111111111111, -0.36, -0.35888888888888887, -0.35888888888888887, -0.35888888888888887, -0.35888888888888887, -0.35888888888888887, -0.35888888888888887, -0.35888888888888887, -0.35888888888888887, -0.35888888888888887, -0.35888888888888887, -0.35888888888888887, -0.35888888888888887, -0.35888888888888887, -0.35888888888888887, -0.35888888888888887, -0.35888888888888887, -0.35888888888888887, -0.35888888888888887, -0.35888888888888887, -0.35888888888888887, -0.35888888888888887, -0.36, -0.37444444444444447, -0.38555555555555554, -0.39111111111111113, -0.39666666666666667, -0.4011111111111111, -0.4022222222222222]","[0.0, 0.0, 0.0, 0.0, 0.0, 0.0, -0.0033333333333333335, -0.006666666666666667, -0.006666666666666667, -0.006666666666666667, -0.006666666666666667, -0.006666666666666667, -0.006666666666666667, -0.006666666666666667, -0.0022222222222222222, 0.025555555555555557, 0.11555555555555555, 0.19333333333333333, 0.24333333333333335, 0.2777777777777778, 0.29333333333333333, 0.29888888888888887, 0.3022222222222222, 0.30444444444444446, 0.30666666666666664, 0.31, 0.31222222222222223, 0.32, 0.3333333333333333, 0.3488888888888889, 0.35777777777777775, 0.35888888888888887, 0.35888888888888887, 0.3566666666666667, 0.35444444444444445, 0.35444444444444445, 0.35444444444444445, 0.35444444444444445, 0.35444444444444445, 0.35444444444444445, 0.35444444444444445, 0.35444444444444445, 0.35444444444444445, 0.35444444444444445, 0.35444444444444445, 0.35444444444444445, 0.35444444444444445, 0.35444444444444445, 0.35444444444444445, 0.35444444444444445, 0.36, 0.3688888888888889, 0.3811111111111111, 0.39111111111111113, 0.39111111111111113, 0.39111111111111113, 0.39111111111111113, 0.39111111111111113, 0.39111111111111113, 0.39111111111111113, 0.39111111111111113, 0.39111111111111113, 0.39111111111111113, 0.39111111111111113, 0.39111111111111113, 0.39111111111111113, 0.39222222222222225, 0.39222222222222225, 0.39222222222222225, 0.39222222222222225, 0.39222222222222225, 0.39222222222222225, 0.39222222222222225, 0.39222222222222225, 0.39222222222222225, 0.39222222222222225, 0.39222222222222225, 0.39666666666666667, 0.4022222222222222, 0.40444444444444444, 0.4088888888888889, 0.4111111111111111, 0.4122222222222222]","[0, 0, 0, 0, 0, 0, 0, 0, 0, 0, 0, 0, 0, 0, 0, 0, 0, 0, 0, 0, 0, 0, 0, 0, 0, 0, 0, 0, 0, 0, 0, 0, 0, 0, 1, 1, 1, 1, 1, 0, 0, 0, 0, 0, 0, 0, 0, 0, 0, 0, 0, 0, 0, 0, 0, 0, 0, 0, 0, 0, 0, 0, 0, 0, 0, 0, 0, 0, 0, 0, 0, 0, 0, 0, 0, 0, 0, 0, 0, 0, 0, 0, 1]","[0, 0, 0, 0, 0, 0, 0, 0, 0, 0, 0, 0, 0, 0, 0, 0, 0, 0, 0, 0, 0, 0, 0, 0, 0, 0, 0, 0, 0, 0, 0, 0, 0, 0, 0, 0, 0, 0, 0, 0, 0, 0, 0, 0, 0, 0, 0, 0, 0, 0, 0, 0, 0, 0, 0, 0, 0, 0, 0, 0, 0, 0, 0, 0, 0, 0, 0, 0, 0, 0, 0, 0, 0, 0, 0, 0, 0, 0, 0, 0, 0, 0, 0]","[0, 0, 0, 0, 0, 0, 0, 0, 0, 0, 0, 0, 0, 0, 0, 0, 0, 0, 0, 0, 0, 0, 0, 0, 0, 0, 0, 0, 0, 0, 0, 0, 0, 0, 0, 0, 0, 0, 0, 0, 0, 0, 0, 0, 0, 0, 0, 0, 0, 0, 0, 0, 0, 0, 0, 0, 0, 0, 0, 0, 0, 0, 0, 0, 0, 0, 0, 0, 0, 0, 0, 0, 0, 0, 0, 0, 0, 0, 0, 0, 0, 0, 0]","[0.0007300829965970479, 0.05134712500148453, 0.1018575409980258, 0.1521357910023653, 0.20207674999983283, 0.2514851660016575, 0.3012637909996556, 0.3511804160007159, 0.40100833299948135, 0.4506987080021645, 0.5000817499967525, 0.5492427080025664, 0.5987056250014575, 0.6480359999986831, 0.6975851250026608, 0.747077874999377, 0.7964419999989332, 0.8458602910031914, 0.8955403750005644, 0.9449221250033588, 0.994355540999095, 1.044151916001283, 1.093335500001558, 1.1425944579968927, 1.1911802909962717, 1.2403492079974967, 1.289533750001283, 1.3388065830004052, 1.38804962499853, 1.4374519580014748, 1.4867560409984435, 1.5345761659991695, 1.58473983300064, 1.6339796660031425, 1.6846048750012415, 1.7343592909965082, 1.7836423749977257, 1.8333200409979327, 1.8829303750026156, 1.9332221250006114, 1.983660541001882, 2.0327873330024886, 2.0822443750003004, 2.1310880000019097, 2.179935291002039, 2.228918833003263, 2.277641583001241, 2.326388749999751, 2.375146207996295, 2.4244606659995043, 2.4740680410031928, 2.523558957997011, 2.5729722499963827, 2.6225795409991406, 2.6720465830003377, 2.7214025409994065, 2.770690375000413, 2.819548040999507, 2.8683269999964978, 2.91750991599838, 2.9669633750017965, 3.0163549999997485, 3.065880415997526, 3.115640666001127, 3.1649176249993616, 3.2147402909977245, 3.263722957999562, 3.3122960409964435, 3.3611355000030017, 3.4100145830016118, 3.458160583002609, 3.5067735830016318, 3.5554040830029408, 3.603988916001981, 3.6527228749982896, 3.702140125002188, 3.752249375000247, 3.8022877080002218, 3.852528750001511, 3.9018745829962427, 3.952250540998648, 4.0023837909975555, 4.051971583001432]",140.01516770799935,,,,,,7,14,2023-10-30_19h03.58.138,WythoffsHumanExp,2023.1.3,None,
,,,,,,,,1,0,1,0,,,,,,,,,,,,,,,,,,,,,,0.04837795900675701,"[0.0, 0.0, 0.0, 0.0, 0.0, 0.0, -0.0011111111111111111, -0.0044444444444444444, -0.005555555555555556, -0.005555555555555556, -0.005555555555555556, -0.005555555555555556, -0.005555555555555556, -0.014444444444444444, -0.044444444444444446, -0.11222222222222222, -0.2011111111111111, -0.25666666666666665, -0.29888888888888887, -0.31777777777777777, -0.33111111111111113, -0.34, -0.3566666666666667, -0.37444444444444447, -0.3888888888888889, -0.39666666666666667, -0.39666666666666667]","[0.0, 0.0, 0.0, 0.0, 0.0, 0.0, 0.056666666666666664, 0.10333333333333333, 0.11333333333333333, 0.11333333333333333, 0.11333333333333333, 0.11333333333333333, 0.11333333333333333, 0.11444444444444445, 0.12444444444444444, 0.15666666666666668, 0.20444444444444446, 0.25222222222222224, 0.29555555555555557, 0.3211111111111111, 0.3433333333333333, 0.36333333333333334, 0.3788888888888889, 0.39, 0.3977777777777778, 0.40555555555555556, 0.40555555555555556]","[0, 0, 0, 0, 0, 0, 0, 0, 0, 0, 0, 0, 0, 0, 0, 0, 0, 0, 0, 0, 0, 0, 0, 0, 0, 1, 1]","[0, 0, 0, 0, 0, 0, 0, 0, 0, 0, 0, 0, 0, 0, 0, 0, 0, 0, 0, 0, 0, 0, 0, 0, 0, 0, 0]","[0, 0, 0, 0, 0, 0, 0, 0, 0, 0, 0, 0, 0, 0, 0, 0, 0, 0, 0, 0, 0, 0, 0, 0, 0, 0, 0]","[0.0005115419990033843, 0.05026829199778149, 0.09992820899788057, 0.1492862500017509, 0.1989079170016339, 0.24880291699810186, 0.29886987499776296, 0.34875370899681, 0.39869041700148955, 0.4486847090010997, 0.4982505840016529, 0.5479807090014219, 0.5978604589981842, 0.6478772089976701, 0.6982441669970285, 0.7486167090028175, 0.7987209170023561, 0.8482127500028582, 0.8984706249975716, 0.9488236670003971, 0.9992303339968203, 1.0487656249970314, 1.0988817090037628, 1.1486734170030104, 1.1990241250023246, 1.2502474170032656, 1.2993632090001483]",149.85190304199932,,,,,,7,14,2023-10-30_19h03.58.138,WythoffsHumanExp,2023.1.3,None,
,,,,,,,,2,0,2,0,,,,,,,,,,,,,,,,,,,,,,0.01058795800054213,"[0.0, 0.0, 0.0, 0.0, 0.0, 0.0, -0.025555555555555557, -0.07222222222222222, -0.15333333333333332, -0.18777777777777777, -0.19333333333333333, -0.19333333333333333, -0.19333333333333333, -0.19333333333333333, -0.19333333333333333, -0.19333333333333333, -0.22333333333333333, -0.27555555555555555, -0.32666666666666666, -0.35, -0.3611111111111111, -0.3688888888888889, -0.37333333333333335, -0.3788888888888889, -0.38222222222222224, -0.38333333333333336, -0.38333333333333336, -0.38333333333333336, -0.38333333333333336, -0.38333333333333336, -0.38333333333333336, -0.38333333333333336, -0.39, -0.4022222222222222, -0.41444444444444445, -0.42, -0.4211111111111111, -0.4211111111111111]","[0.0, 0.0, 0.0, 0.0, 0.0, 0.0, 0.03666666666666667, 0.08444444444444445, 0.16777777777777778, 0.2111111111111111, 0.22666666666666666, 0.22666666666666666, 0.22666666666666666, 0.22666666666666666, 0.22666666666666666, 0.22666666666666666, 0.23333333333333334, 0.2611111111111111, 0.30333333333333334, 0.3277777777777778, 0.3422222222222222, 0.3611111111111111, 0.37222222222222223, 0.3888888888888889, 0.40444444444444444, 0.4066666666666667, 0.4066666666666667, 0.4066666666666667, 0.4066666666666667, 0.4066666666666667, 0.4066666666666667, 0.4066666666666667, 0.4066666666666667, 0.4066666666666667, 0.4088888888888889, 0.41, 0.41, 0.41]","[0, 0, 0, 0, 0, 0, 0, 0, 0, 0, 0, 0, 0, 0, 0, 0, 0, 0, 0, 0, 0, 0, 0, 0, 0, 0, 0, 0, 0, 0, 0, 0, 0, 0, 0, 0, 1, 1]","[0, 0, 0, 0, 0, 0, 0, 0, 0, 0, 0, 0, 0, 0, 0, 0, 0, 0, 0, 0, 0, 0, 0, 0, 0, 0, 0, 0, 0, 0, 0, 0, 0, 0, 0, 0, 0, 0]","[0, 0, 0, 0, 0, 0, 0, 0, 0, 0, 0, 0, 0, 0, 0, 0, 0, 0, 0, 0, 0, 0, 0, 0, 0, 0, 0, 0, 0, 0, 0, 0, 0, 0, 0, 0, 0, 0]","[0.0002168339997297153, 0.04980704199988395, 0.09915895899757743, 0.1484597499947995, 0.19760137499542907, 0.24707254199893214, 0.2963382919988362, 0.34560208399489056, 0.3958805419970304, 0.44548112499614945, 0.49468612499913434, 0.5440116249956191, 0.5932874589998391, 0.6428406249979162, 0.6926334589952603, 0.742754041995795, 0.7929916249995586, 0.8429265419981675, 0.8930333749958663, 0.9430859589992906, 0.9934658749989467, 1.0437215419951826, 1.093449125000916, 1.1435047919949284, 1.1936866249961895, 1.2433431669996935, 1.2931452919947333, 1.3432819169975119, 1.3929126250004629, 1.4423128339985851, 1.4912682919966755, 1.5402510419953614, 1.5893914999978733, 1.6386303339968435, 1.6879814169951715, 1.7371188339966466, 1.786452125001233, 1.8357102499940083]",172.3423912080034,,,,,,7,14,2023-10-30_19h03.58.138,WythoffsHumanExp,2023.1.3,None,
,,,,,,,,3,0,3,0,,,,,,,,,,,,,,,,,,,,,,0.013661832999787293,"[0.0, 0.0, 0.0, 0.0, 0.0, 0.0, -0.05444444444444444, -0.12, -0.15888888888888889, -0.1622222222222222, -0.1622222222222222, -0.1622222222222222, -0.1622222222222222, -0.1622222222222222, -0.1711111111111111, -0.21333333333333335, -0.27444444444444444, -0.31333333333333335, -0.3322222222222222, -0.3477777777777778, -0.35777777777777775, -0.37222222222222223, -0.39111111111111113, -0.4, -0.4011111111111111]","[0.0, 0.0, 0.0, 0.0, 0.0, 0.0, 0.06222222222222222, 0.14555555555555555, 0.20555555555555555, 0.21333333333333335, 0.21333333333333335, 0.21333333333333335, 0.21333333333333335, 0.21333333333333335, 0.21555555555555556, 0.24666666666666667, 0.30333333333333334, 0.33666666666666667, 0.3566666666666667, 0.37222222222222223, 0.3788888888888889, 0.3844444444444444, 0.39555555555555555, 0.4, 0.4]","[0, 0, 0, 0, 0, 0, 0, 0, 0, 0, 0, 0, 0, 0, 0, 0, 0, 0, 0, 0, 0, 0, 0, 1, 1]","[0, 0, 0, 0, 0, 0, 0, 0, 0, 0, 0, 0, 0, 0, 0, 0, 0, 0, 0, 0, 0, 0, 0, 0, 0]","[0, 0, 0, 0, 0, 0, 0, 0, 0, 0, 0, 0, 0, 0, 0, 0, 0, 0, 0, 0, 0, 0, 0, 0, 0]","[0.00023391700233332813, 0.04961841699696379, 0.09943795800063526, 0.148636500001885, 0.19776000000274507, 0.24707408300309908, 0.2966709999964223, 0.34644329200091306, 0.39633266699820524, 0.44506429199827835, 0.4938686669993331, 0.5427795419964241, 0.5921693749987753, 0.6422095419984544, 0.6921942080007284, 0.7427362500020536, 0.7924181670023245, 0.8425078750005923, 0.8926120000032824, 0.9426775829997496, 0.9926927920023445, 1.0432245830015745, 1.0937084170000162, 1.1440034580009524, 1.1933784170032595]",207.19346145800228,,,,,,7,14,2023-10-30_19h03.58.138,WythoffsHumanExp,2023.1.3,None,
,,,,,,,,4,0,4,0,,,,,,,,,,,,,,,,,,,,,,0.02733716700458899,"[0.0, 0.0, 0.0, 0.0, 0.0, 0.0, 0.0, 0.0, 0.0, 0.0, 0.0, 0.0, -0.0044444444444444444, -0.052222222222222225, -0.15333333333333332, -0.25666666666666665, -0.31777777777777777, -0.34, -0.34444444444444444, -0.34444444444444444, -0.34444444444444444, -0.34444444444444444, -0.35333333333333333, -0.38, -0.3988888888888889, -0.40444444444444444, -0.4066666666666667, -0.41, -0.41]","[0.0, 0.0, 0.0, 0.0, 0.0, 0.0, 0.0, 0.0, 0.0, 0.0, 0.0, 0.0, 0.0022222222222222222, 0.058888888888888886, 0.16111111111111112, 0.2722222222222222, 0.3477777777777778, 0.37666666666666665, 0.3877777777777778, 0.3877777777777778, 0.3877777777777778, 0.3877777777777778, 0.3877777777777778, 0.3933333333333333, 0.39666666666666667, 0.3977777777777778, 0.3988888888888889, 0.3988888888888889, 0.3988888888888889]","[0, 0, 0, 0, 0, 0, 0, 0, 0, 0, 0, 0, 0, 0, 0, 0, 0, 0, 0, 0, 0, 0, 0, 0, 0, 0, 0, 1, 1]","[0, 0, 0, 0, 0, 0, 0, 0, 0, 0, 0, 0, 0, 0, 0, 0, 0, 0, 0, 0, 0, 0, 0, 0, 0, 0, 0, 0, 0]","[0, 0, 0, 0, 0, 0, 0, 0, 0, 0, 0, 0, 0, 0, 0, 0, 0, 0, 0, 0, 0, 0, 0, 0, 0, 0, 0, 0, 0]","[0.00023637500271433964, 0.0493795830043382, 0.09862783300195588, 0.1478038330023992, 0.19709854100074153, 0.2465172079973854, 0.29571966599905863, 0.34488779099774547, 0.3934009580043494, 0.4418191660006414, 0.49044387500180164, 0.5394850829979987, 0.5889292909996584, 0.6379575410028338, 0.6872775000010733, 0.7364390000002459, 0.7855804580030963, 0.8348313750029774, 0.8833927079977002, 0.9320450000013807, 0.9815416249984992, 1.031297875000746, 1.0813977500001783, 1.1312798750004731, 1.1813302500013378, 1.231520332999935, 1.2824862909983494, 1.3330228330014506, 1.3823221659986302]",216.90519812500133,,,,,,7,14,2023-10-30_19h03.58.138,WythoffsHumanExp,2023.1.3,None,
,,,,,,,,5,0,5,0,,,,,,,,,,,,,,,,,,,,,,0.04447420900396537,"[0.0, 0.0, 0.0, 0.0, 0.0, 0.0, 0.0, 0.0, -0.043333333333333335, -0.1388888888888889, -0.21777777777777776, -0.2733333333333333, -0.2966666666666667, -0.30777777777777776, -0.31555555555555553, -0.3233333333333333, -0.32666666666666666, -0.3333333333333333, -0.34, -0.3411111111111111]","[0.0, 0.0, 0.0, 0.0, 0.0, 0.0, 0.0, 0.0, 0.03, 0.12777777777777777, 0.21555555555555556, 0.28444444444444444, 0.31444444444444447, 0.32222222222222224, 0.3288888888888889, 0.33444444444444443, 0.33666666666666667, 0.34, 0.34444444444444444, 0.34555555555555556]","[0, 0, 0, 0, 0, 0, 0, 0, 0, 0, 0, 0, 0, 0, 0, 0, 0, 0, 1, 1]","[0, 0, 0, 0, 0, 0, 0, 0, 0, 0, 0, 0, 0, 0, 0, 0, 0, 0, 0, 0]","[0, 0, 0, 0, 0, 0, 0, 0, 0, 0, 0, 0, 0, 0, 0, 0, 0, 0, 0, 0]","[0.0002413340043858625, 0.049357875002897345, 0.09791533400129993, 0.14661700000579003, 0.19539649999933317, 0.24427645900141215, 0.29294216700509423, 0.34309841700451216, 0.3934797920010169, 0.44361729200318223, 0.4938814170018304, 0.544138709003164, 0.5942756670046947, 0.6439091249994817, 0.6938795420064707, 0.7440569169993978, 0.7940590840007644, 0.8445425840036478, 0.8949208340054611, 0.944578292001097]",236.485214291999,,,,,,7,14,2023-10-30_19h03.58.138,WythoffsHumanExp,2023.1.3,None,
,,,,,,,,6,0,6,0,,,,,,,,,,,,,,,,,,,,,,0.03580399999918882,"[0.0, 0.0, 0.0, 0.0, 0.0, 0.0, 0.0, 0.0, 0.0, -0.025555555555555557, -0.17444444444444446, -0.3011111111111111, -0.37444444444444447, -0.3933333333333333, -0.4022222222222222, -0.41, -0.4122222222222222, -0.4122222222222222, -0.41333333333333333, -0.41333333333333333, -0.41333333333333333]","[0.0, 0.0, 0.0, 0.0, 0.0, 0.0, 0.0, 0.0, 0.0, 0.011111111111111112, 0.12777777777777777, 0.2544444444444444, 0.34, 0.36333333333333334, 0.37666666666666665, 0.38666666666666666, 0.39, 0.39, 0.39111111111111113, 0.39111111111111113, 0.39111111111111113]","[0, 0, 0, 0, 0, 0, 0, 0, 0, 0, 0, 0, 0, 0, 0, 0, 0, 0, 0, 0, 1]","[0, 0, 0, 0, 0, 0, 0, 0, 0, 0, 0, 0, 0, 0, 0, 0, 0, 0, 0, 0, 0]","[0, 0, 0, 0, 0, 0, 0, 0, 0, 0, 0, 0, 0, 0, 0, 0, 0, 0, 0, 0, 0]","[0.0006780830008210614, 0.05147087500517955, 0.10143025000434136, 0.1513436660025036, 0.20112308300303994, 0.2510317910055164, 0.30073541599995224, 0.35125862499990035, 0.4010747499996796, 0.4513779160042759, 0.5016438750026282, 0.5522624580044067, 0.6034704580015386, 0.6533854580047773, 0.7027204160040128, 0.7521831250051036, 0.8021318329992937, 0.8521045830057119, 0.9023314580044826, 0.9519011660013348, 1.0017138330003945]",259.41989266699966,,,,,,7,14,2023-10-30_19h03.58.138,WythoffsHumanExp,2023.1.3,None,
,,,,,,,,7,0,7,0,,,,,,,,,,,,,,,,,,,,,,0.007055124995531514,"[0.0, 0.0, 0.0, 0.0, 0.0, 0.0, -0.06666666666666667, -0.17, -0.2644444444444444, -0.34555555555555556, -0.37555555555555553, -0.3877777777777778, -0.4011111111111111, -0.4088888888888889, -0.41333333333333333, -0.41444444444444445]","[0.0, 0.0, 0.0, 0.0, 0.0, 0.0, 0.06555555555555556, 0.16666666666666666, 0.26555555555555554, 0.35888888888888887, 0.3933333333333333, 0.4033333333333333, 0.4111111111111111, 0.41888888888888887, 0.4211111111111111, 0.4211111111111111]","[0, 0, 0, 0, 0, 0, 0, 0, 0, 0, 0, 0, 0, 0, 1, 1]","[0, 0, 0, 0, 0, 0, 0, 0, 0, 0, 0, 0, 0, 0, 0, 0]","[0, 0, 0, 0, 0, 0, 0, 0, 0, 0, 0, 0, 0, 0, 0, 0]","[0.0002497910027159378, 0.04889870800252538, 0.09868816599919228, 0.14889320800284622, 0.19919191599910846, 0.24924154100153828, 0.29932704100065166, 0.3489081250008894, 0.39882116600347217, 0.44811374999699183, 0.4979640000019572, 0.5493812909990083, 0.6020405829985975, 0.6551420830001007, 0.7090557499977876, 0.7610737909999443]",271.67838050000137,,,,,,7,14,2023-10-30_19h03.58.138,WythoffsHumanExp,2023.1.3,None,
,,,,,,,,8,0,8,0,,,,,,,,,,,,,,,,,,,,,,0.004108291999727953,"[0.0, 0.0, 0.0, 0.0, 0.0, 0.0, 0.0, 0.0, 0.0, 0.0, 0.0, 0.0, 0.0, -0.0044444444444444444, -0.04888888888888889, -0.15666666666666668, -0.25333333333333335, -0.3111111111111111, -0.3333333333333333, -0.34555555555555556, -0.3511111111111111, -0.35777777777777775, -0.3688888888888889, -0.38, -0.39, -0.39222222222222225]","[0.0, 0.0, 0.0, 0.0, 0.0, 0.0, 0.0, 0.0, 0.0, 0.0, 0.0, 0.0, 0.0, 0.0, 0.023333333333333334, 0.13333333333333333, 0.26555555555555554, 0.35888888888888887, 0.3888888888888889, 0.4022222222222222, 0.40555555555555556, 0.40555555555555556, 0.40555555555555556, 0.40555555555555556, 0.40555555555555556, 0.40555555555555556]","[0, 0, 0, 0, 0, 0, 0, 0, 0, 0, 0, 0, 0, 0, 0, 0, 0, 0, 0, 0, 0, 0, 0, 0, 1, 1]","[0, 0, 0, 0, 0, 0, 0, 0, 0, 0, 0, 0, 0, 0, 0, 0, 0, 0, 0, 0, 0, 0, 0, 0, 0, 0]","[0, 0, 0, 0, 0, 0, 0, 0, 0, 0, 0, 0, 0, 0, 0, 0, 0, 0, 0, 0, 0, 0, 0, 0, 0, 0]","[0.0002503750001778826, 0.04978733300231397, 0.09927050000260351, 0.14861937500245403, 0.1976606250027544, 0.2465791659997194, 0.29528695800399873, 0.343872541001474, 0.3923903750037425, 0.4410502910031937, 0.489616291000857, 0.53875245800009, 0.5877489160047844, 0.6368674160039518, 0.6857583750024787, 0.7349198750016512, 0.7850564160034992, 0.8353302500036079, 0.884934500005329, 0.9351157500059344, 0.9852761660004035, 1.0344548749999376, 1.0841604160013958, 1.134242666004866, 1.1851710410046508, 1.2344682910043048]",286.96920020799735,,,,,,7,14,2023-10-30_19h03.58.138,WythoffsHumanExp,2023.1.3,None,
,,,,,,,,9,0,9,0,,,,,,,,,,,,,,,,,,,,,,0.046664582994708326,"[0.0, 0.0, 0.0, 0.0, 0.0, 0.0, -0.05444444444444444, -0.15, -0.21444444444444444, -0.22444444444444445, -0.22444444444444445, -0.22444444444444445, -0.22444444444444445, -0.22444444444444445, -0.23222222222222222, -0.28444444444444444, -0.34555555555555556, -0.39111111111111113, -0.41444444444444445, -0.41888888888888887, -0.41888888888888887, -0.41888888888888887, -0.41888888888888887]","[0.0, 0.0, 0.0, 0.0, 0.0, 0.0, 0.07, 0.18444444444444444, 0.26, 0.2777777777777778, 0.2777777777777778, 0.2777777777777778, 0.2777777777777778, 0.2777777777777778, 0.2788888888888889, 0.3188888888888889, 0.36777777777777776, 0.39444444444444443, 0.41, 0.41444444444444445, 0.41444444444444445, 0.4122222222222222, 0.4122222222222222]","[0, 0, 0, 0, 0, 0, 0, 0, 0, 0, 0, 0, 0, 0, 0, 0, 0, 0, 0, 0, 0, 1, 1]","[0, 0, 0, 0, 0, 0, 0, 0, 0, 0, 0, 0, 0, 0, 0, 0, 0, 0, 0, 0, 0, 0, 0]","[0, 0, 0, 0, 0, 0, 0, 0, 0, 0, 0, 0, 0, 0, 0, 0, 0, 0, 0, 0, 0, 0, 0]","[0.0005308330000843853, 0.05002916599914897, 0.09958679100236623, 0.14867487500305288, 0.198281582997879, 0.2478547080027056, 0.29746424999757437, 0.34694087500247406, 0.3961933329992462, 0.44488991599791916, 0.4936472080007661, 0.5433316659982665, 0.593413665999833, 0.6433570410008542, 0.6934787080026581, 0.7439240000021528, 0.7941495409977506, 0.8443183749986929, 0.8949740829993971, 0.9443817909996142, 0.9942072080011712, 1.044775957998354, 1.0958493750003981]",303.4734987920019,,,,,,7,14,2023-10-30_19h03.58.138,WythoffsHumanExp,2023.1.3,None,
,,,,,,,,10,0,10,0,,,,,,,,,,,,,,,,,,,,,,0.003963541996199638,"[0.0, 0.0, 0.0, 0.0, 0.0, 0.0, 0.0, 0.0, -0.0044444444444444444, -0.052222222222222225, -0.1622222222222222, -0.2866666666666667, -0.36333333333333334, -0.4011111111111111, -0.41444444444444445, -0.41888888888888887, -0.42, -0.4211111111111111, -0.4211111111111111]","[0.0, 0.0, 0.0, 0.0, 0.0, 0.0, 0.0, 0.0, 0.0, 0.03888888888888889, 0.1711111111111111, 0.3188888888888889, 0.4122222222222222, 0.44555555555555554, 0.45111111111111113, 0.45111111111111113, 0.4488888888888889, 0.44333333333333336, 0.44]","[0, 0, 0, 0, 0, 0, 0, 0, 0, 0, 0, 0, 0, 0, 0, 0, 0, 0, 1]","[0, 0, 0, 0, 0, 0, 0, 0, 0, 0, 0, 0, 0, 0, 0, 0, 0, 0, 0]","[0, 0, 0, 0, 0, 0, 0, 0, 0, 0, 0, 0, 0, 0, 0, 0, 0, 0, 0]","[0.0005297499956213869, 0.05117345899634529, 0.10164608399645658, 0.15114320899738232, 0.20078908399591455, 0.2503053339969483, 0.299854624994623, 0.34978654199949233, 0.400248666999687, 0.45082362499670126, 0.5010094589961227, 0.5511135839988128, 0.6015485839961912, 0.6526433339968207, 0.702210291994561, 0.7524733749960433, 0.8019654169984278, 0.8518582089964184, 0.9021864589958568]",332.0580669580013,,,,,,7,14,2023-10-30_19h03.58.138,WythoffsHumanExp,2023.1.3,None,
,,,,,,,,11,0,11,0,,,,,,,,,,,,,,,,,,,,,,0.0440307919998304,"[0.0, 0.0, 0.0, 0.0, 0.0, 0.0, 0.0, -0.005555555555555556, -0.03111111111111111, -0.09222222222222222, -0.2411111111111111, -0.3244444444444444, -0.36, -0.3711111111111111, -0.3711111111111111, -0.3711111111111111, -0.3711111111111111, -0.3566666666666667, -0.34444444444444444, -0.3377777777777778, -0.33555555555555555, -0.33, -0.3244444444444444, -0.32, -0.31777777777777777, -0.31666666666666665, -0.31666666666666665, -0.31666666666666665, -0.31666666666666665, -0.31666666666666665, -0.31666666666666665, -0.31666666666666665, -0.31666666666666665, -0.31666666666666665, -0.31666666666666665, -0.31666666666666665, -0.31666666666666665, -0.31666666666666665, -0.31666666666666665, -0.31666666666666665, -0.31666666666666665, -0.31666666666666665, -0.31666666666666665, -0.31666666666666665, -0.31666666666666665, -0.31666666666666665, -0.31666666666666665, -0.31666666666666665, -0.31666666666666665, -0.31666666666666665, -0.31666666666666665, -0.31666666666666665, -0.31666666666666665, -0.31666666666666665, -0.31666666666666665, -0.31666666666666665, -0.31666666666666665, -0.31666666666666665, -0.31666666666666665, -0.31666666666666665, -0.31666666666666665, -0.31666666666666665, -0.31666666666666665, -0.31666666666666665, -0.31666666666666665, -0.31666666666666665, -0.31666666666666665, -0.31666666666666665, -0.31666666666666665, -0.31666666666666665, -0.31666666666666665, -0.31777777777777777, -0.35, -0.37555555555555553, -0.38666666666666666, -0.3933333333333333, -0.3977777777777778, -0.4011111111111111, -0.4022222222222222, -0.4088888888888889, -0.41888888888888887, -0.42333333333333334, -0.42777777777777776, -0.43222222222222223, -0.43555555555555553, -0.43666666666666665, -0.43555555555555553, -0.41888888888888887, -0.39, -0.3655555555555556, -0.35777777777777775, -0.35555555555555557, -0.35555555555555557, -0.3622222222222222, -0.37, -0.37333333333333335, -0.37444444444444447, -0.37555555555555553, -0.37333333333333335, -0.3622222222222222, -0.35444444444444445, -0.35333333333333333, -0.35333333333333333, -0.35333333333333333, -0.35333333333333333, -0.35333333333333333, -0.35333333333333333, -0.3522222222222222, -0.35, -0.35, -0.35, -0.35, -0.35, -0.35, -0.35, -0.35, -0.35, -0.35, -0.35444444444444445, -0.3566666666666667, -0.3566666666666667, -0.3566666666666667, -0.3566666666666667, -0.3566666666666667, -0.3566666666666667, -0.3566666666666667, -0.35555555555555557, -0.35555555555555557, -0.35555555555555557, -0.35555555555555557, -0.35555555555555557, -0.35555555555555557, -0.35555555555555557, -0.35555555555555557]","[0.0, 0.0, 0.0, 0.0, 0.0, 0.0, 0.0, 0.0033333333333333335, 0.04, 0.12111111111111111, 0.2833333333333333, 0.36666666666666664, 0.3988888888888889, 0.4066666666666667, 0.4077777777777778, 0.4066666666666667, 0.39222222222222225, 0.35555555555555557, 0.3277777777777778, 0.31444444444444447, 0.3111111111111111, 0.30444444444444446, 0.29555555555555557, 0.28555555555555556, 0.2788888888888889, 0.2777777777777778, 0.2777777777777778, 0.2777777777777778, 0.2777777777777778, 0.2777777777777778, 0.2777777777777778, 0.2777777777777778, 0.2777777777777778, 0.2777777777777778, 0.2777777777777778, 0.2777777777777778, 0.2777777777777778, 0.2777777777777778, 0.2777777777777778, 0.2777777777777778, 0.2777777777777778, 0.2777777777777778, 0.2777777777777778, 0.2777777777777778, 0.2777777777777778, 0.2777777777777778, 0.2777777777777778, 0.2777777777777778, 0.2777777777777778, 0.2777777777777778, 0.2777777777777778, 0.2777777777777778, 0.2777777777777778, 0.2777777777777778, 0.2777777777777778, 0.2777777777777778, 0.2777777777777778, 0.2777777777777778, 0.2777777777777778, 0.2777777777777778, 0.2777777777777778, 0.2777777777777778, 0.2777777777777778, 0.2777777777777778, 0.2777777777777778, 0.2777777777777778, 0.2777777777777778, 0.2777777777777778, 0.2777777777777778, 0.2777777777777778, 0.2777777777777778, 0.2777777777777778, 0.3, 0.3322222222222222, 0.3611111111111111, 0.3933333333333333, 0.41444444444444445, 0.42444444444444446, 0.42444444444444446, 0.42, 0.4088888888888889, 0.4011111111111111, 0.39666666666666667, 0.39555555555555555, 0.39555555555555555, 0.39555555555555555, 0.39444444444444443, 0.39111111111111113, 0.3877777777777778, 0.3877777777777778, 0.3877777777777778, 0.3877777777777778, 0.3877777777777778, 0.38666666666666666, 0.38555555555555554, 0.3877777777777778, 0.3877777777777778, 0.3877777777777778, 0.38666666666666666, 0.36666666666666664, 0.34444444444444444, 0.3333333333333333, 0.33111111111111113, 0.33111111111111113, 0.33111111111111113, 0.3322222222222222, 0.33444444444444443, 0.34, 0.34444444444444444, 0.3466666666666667, 0.3466666666666667, 0.3466666666666667, 0.3466666666666667, 0.3466666666666667, 0.3466666666666667, 0.3466666666666667, 0.3466666666666667, 0.35555555555555557, 0.3888888888888889, 0.4033333333333333, 0.4066666666666667, 0.4066666666666667, 0.4066666666666667, 0.4066666666666667, 0.4066666666666667, 0.40555555555555556, 0.4022222222222222, 0.4022222222222222, 0.4022222222222222, 0.4022222222222222, 0.4022222222222222, 0.4022222222222222, 0.4022222222222222, 0.4022222222222222]","[0, 0, 0, 0, 0, 0, 0, 0, 0, 0, 0, 0, 0, 0, 0, 0, 0, 0, 0, 0, 0, 0, 0, 0, 0, 0, 0, 0, 0, 0, 0, 0, 0, 0, 0, 0, 0, 0, 0, 0, 0, 0, 0, 0, 0, 0, 0, 0, 0, 0, 0, 0, 0, 0, 0, 0, 0, 0, 0, 0, 0, 0, 0, 0, 0, 0, 0, 0, 0, 0, 0, 0, 0, 0, 0, 0, 0, 0, 0, 0, 0, 0, 0, 0, 0, 0, 0, 0, 0, 0, 0, 0, 0, 0, 0, 0, 0, 0, 0, 0, 0, 0, 0, 0, 0, 0, 0, 0, 0, 0, 0, 0, 0, 0, 0, 0, 0, 0, 0, 0, 0, 0, 0, 0, 0, 0, 0, 0, 0, 0, 0, 0, 1, 1]","[0, 0, 0, 0, 0, 0, 0, 0, 0, 0, 0, 0, 0, 0, 0, 0, 0, 0, 0, 0, 0, 0, 0, 0, 0, 0, 0, 0, 0, 0, 0, 0, 0, 0, 0, 0, 0, 0, 0, 0, 0, 0, 0, 0, 0, 0, 0, 0, 0, 0, 0, 0, 0, 0, 0, 0, 0, 0, 0, 0, 0, 0, 0, 0, 0, 0, 0, 0, 0, 0, 0, 0, 0, 0, 0, 0, 0, 0, 0, 0, 0, 0, 0, 0, 0, 0, 0, 0, 0, 0, 0, 0, 0, 0, 0, 0, 0, 0, 0, 0, 0, 0, 0, 0, 0, 0, 0, 0, 0, 0, 0, 0, 0, 0, 0, 0, 0, 0, 0, 0, 0, 0, 0, 0, 0, 0, 0, 0, 0, 0, 0, 0, 0, 0]","[0, 0, 0, 0, 0, 0, 0, 0, 0, 0, 0, 0, 0, 0, 0, 0, 0, 0, 0, 0, 0, 0, 0, 0, 0, 0, 0, 0, 0, 0, 0, 0, 0, 0, 0, 0, 0, 0, 0, 0, 0, 0, 0, 0, 0, 0, 0, 0, 0, 0, 0, 0, 0, 0, 0, 0, 0, 0, 0, 0, 0, 0, 0, 0, 0, 0, 0, 0, 0, 0, 0, 0, 0, 0, 0, 0, 0, 0, 0, 0, 0, 0, 0, 0, 0, 0, 0, 0, 0, 0, 0, 0, 0, 0, 0, 0, 0, 0, 0, 0, 0, 0, 0, 0, 0, 0, 0, 0, 0, 0, 0, 0, 0, 0, 0, 0, 0, 0, 0, 0, 0, 0, 0, 0, 0, 0, 0, 0, 0, 0, 0, 0, 0, 0]","[0.00026920899836113676, 0.04945600000064587, 0.0982862919991021, 0.14773637499456527, 0.19715487500070594, 0.2467077920009615, 0.29672470899822656, 0.3468083339976147, 0.3972336250008084, 0.4484783750012866, 0.49876920899987454, 0.5489557089968002, 0.5991249169965158, 0.6486741670014453, 0.6990210419971845, 0.7488363749944256, 0.7988938339985907, 0.8490857090000645, 0.8984817499949713, 0.9485037919948809, 0.9988944590004394, 1.0491950840005302, 1.0985968339955434, 1.1487440419950872, 1.1988510000010137, 1.248558958999638, 1.2986773749944405, 1.3483015839956352, 1.397871875000419, 1.4474576669963426, 1.4971306669976912, 1.5467921249946812, 1.596682041999884, 1.6472215839967248, 1.6968863750007586, 1.7464944589955849, 1.7962797090003733, 1.8459451669987175, 1.895608209000784, 1.9452238749945536, 1.9945224999974016, 2.0436892090001493, 2.0922923339967383, 2.1412633340005414, 2.190037416999985, 2.238748958996439, 2.2874425839981996, 2.336108666997461, 2.384768999996595, 2.433609624997189, 2.4820815839993884, 2.5317687499991735, 2.581184333997953, 2.6305796669985284, 2.680138124997029, 2.729846041998826, 2.7796342090005055, 2.8295729589954135, 2.8799992499989457, 2.9295708339996054, 2.9791721669971594, 3.0288392919974285, 3.0778937919967575, 3.1267747089950717, 3.175473916999181, 3.224193292000564, 3.273123624996515, 3.3222256250010105, 3.371282458996575, 3.419981833998463, 3.4689282499966794, 3.5181662920003873, 3.5676521669956855, 3.617019958997844, 3.669212708999112, 3.718969624998863, 3.7685639589981292, 3.818098584000836, 3.8677528749976773, 3.917291874997318, 3.966861083994445, 4.016568916995311, 4.066687708997051, 4.1160607089987025, 4.16540412500035, 4.215623374999268, 4.265836334001506, 4.315145000000484, 4.365295291994698, 4.415822584000125, 4.465132208999421, 4.514834333996987, 4.565101333995699, 4.6156400839972775, 4.666398791996471, 4.715960999994422, 4.765154084001551, 4.815060666995123, 4.864087958994787, 4.914690749996225, 4.965271916997153, 5.01611050000065, 5.065213292000408, 5.114750834000006, 5.164402208996762, 5.214820791996317, 5.265555291996861, 5.316054833994713, 5.365274499999941, 5.414882583994768, 5.465010458996403, 5.5148964589971, 5.564683042000979, 5.614518875001522, 5.664164791996882, 5.71384387499711, 5.763985291996505, 5.814377124996099, 5.864793166998425, 5.9157044169987785, 5.965417542000068, 6.01499404200149, 6.064693000000261, 6.114484416997584, 6.164675542000623, 6.2152864589952515, 6.265668583997467, 6.31540637499711, 6.36511733399675, 6.414977583997825, 6.4647517499979585, 6.514797124997131, 6.565236292000918, 6.614807666999695]",348.6997193749994,,,,,,7,14,2023-10-30_19h03.58.138,WythoffsHumanExp,2023.1.3,None,
,,,,,,,,12,0,12,0,,,,,,,,,,,,,,,,,,,,,,0.013078333999146707,"[0.0, 0.0, 0.0, 0.0, 0.0, 0.0, 0.0, 0.0, 0.0, 0.0, 0.0, 0.0, -0.057777777777777775, -0.19666666666666666, -0.2722222222222222, -0.33111111111111113, -0.37333333333333335, -0.4288888888888889, -0.45666666666666667, -0.4588888888888889, -0.4477777777777778, -0.4211111111111111, -0.41333333333333333, -0.4122222222222222]","[0.0, 0.0, 0.0, 0.0, 0.0, 0.0, 0.0, 0.0, 0.0, 0.0, 0.0, 0.0, 0.035555555555555556, 0.19777777777777777, 0.3, 0.37444444444444447, 0.40444444444444444, 0.4266666666666667, 0.44, 0.44, 0.42444444444444446, 0.3977777777777778, 0.39111111111111113, 0.39111111111111113]","[0, 0, 0, 0, 0, 0, 0, 0, 0, 0, 0, 0, 0, 0, 0, 0, 0, 0, 0, 0, 0, 0, 1, 1]","[0, 0, 0, 0, 0, 0, 0, 0, 0, 0, 0, 0, 0, 0, 0, 0, 0, 0, 0, 0, 0, 0, 0, 0]","[0, 0, 0, 0, 0, 0, 0, 0, 0, 0, 0, 0, 0, 0, 0, 0, 0, 0, 0, 0, 0, 0, 0, 0]","[0.00026879100187215954, 0.04938116599805653, 0.09818808300042292, 0.14805075000185752, 0.1975300830017659, 0.2470517080000718, 0.29664649999904213, 0.3463090830045985, 0.39637970799958566, 0.4463001250041998, 0.4960242910019588, 0.5463572500011651, 0.5965113330021268, 0.6469602500001201, 0.6972555000029388, 0.7478698330014595, 0.7981872079981258, 0.8483302910026396, 0.8985241660047905, 0.948676833002537, 0.9991426249980577, 1.0487904580004397, 1.0992145830023219, 1.1490391250044922]",356.2648687920009,,,,,,7,14,2023-10-30_19h03.58.138,WythoffsHumanExp,2023.1.3,None,
,,,,,,,,13,0,13,0,,,,,,,,,,,,,,,,,,,,,,0.006963874999200925,"[0.0, 0.0, 0.0, 0.0, 0.0, 0.0, -0.015555555555555555, -0.03888888888888889, -0.04888888888888889, -0.04888888888888889, -0.04888888888888889, -0.04888888888888889, -0.04888888888888889, -0.08777777777777777, -0.2633333333333333, -0.35333333333333333, -0.3977777777777778, -0.41444444444444445, -0.4211111111111111, -0.42333333333333334, -0.4255555555555556, -0.4255555555555556, -0.4255555555555556]","[0.0, 0.0, 0.0, 0.0, 0.0, 0.0, 0.0022222222222222222, 0.022222222222222223, 0.044444444444444446, 0.044444444444444446, 0.044444444444444446, 0.044444444444444446, 0.044444444444444446, 0.07, 0.24555555555555555, 0.3388888888888889, 0.37666666666666665, 0.39222222222222225, 0.3977777777777778, 0.4022222222222222, 0.40444444444444444, 0.40555555555555556, 0.40555555555555556]","[0, 0, 0, 0, 0, 0, 0, 0, 0, 0, 0, 0, 0, 0, 0, 0, 0, 0, 0, 0, 0, 1, 1]","[0, 0, 0, 0, 0, 0, 0, 0, 0, 0, 0, 0, 0, 0, 0, 0, 0, 0, 0, 0, 0, 0, 0]","[0, 0, 0, 0, 0, 0, 0, 0, 0, 0, 0, 0, 0, 0, 0, 0, 0, 0, 0, 0, 0, 0, 0]","[0.0005507500027306378, 0.05046437500277534, 0.10003170800337102, 0.14962937500240514, 0.19958662499993807, 0.2491492080007447, 0.3014049999983399, 0.3538085830005002, 0.4056339169983403, 0.4576670419992297, 0.5101500000018859, 0.5623829169999226, 0.6144990829998278, 0.6675119580031605, 0.7176267079994432, 0.7671421249979176, 0.8167441670011613, 0.8665184170022258, 0.9163450000050943, 0.9655244579989812, 1.0161650000009104, 1.0668062920012744, 1.1163145419996]",368.2812395830042,,,,,,7,14,2023-10-30_19h03.58.138,WythoffsHumanExp,2023.1.3,None,
,,,,,,,,14,0,14,0,,,,,,,,,,,,,,,,,,,,,,0.005982791997666936,"[0.0, 0.0, 0.0, 0.0, 0.0, 0.0, 0.0, -0.0077777777777777776, -0.09666666666666666, -0.2833333333333333, -0.41555555555555557, -0.4411111111111111, -0.44333333333333336, -0.44333333333333336, -0.44222222222222224, -0.43777777777777777, -0.43555555555555553, -0.43555555555555553]","[0.0, 0.0, 0.0, 0.0, 0.0, 0.0, 0.0, 0.0, 0.06, 0.2288888888888889, 0.3688888888888889, 0.3988888888888889, 0.4022222222222222, 0.4022222222222222, 0.4022222222222222, 0.4022222222222222, 0.4033333333333333, 0.4033333333333333]","[0, 0, 0, 0, 0, 0, 0, 0, 0, 0, 0, 0, 0, 0, 0, 0, 1, 1]","[0, 0, 0, 0, 0, 0, 0, 0, 0, 0, 0, 0, 0, 0, 0, 0, 0, 0]","[0, 0, 0, 0, 0, 0, 0, 0, 0, 0, 0, 0, 0, 0, 0, 0, 0, 0]","[0.0005747920004068874, 0.05066870799782919, 0.10010024999792222, 0.14928145799785852, 0.1988046670012409, 0.24816899999859743, 0.2981142920034472, 0.3484504169973661, 0.39869029200053774, 0.4505177500032005, 0.49991754200163996, 0.5491658329992788, 0.598464167000202, 0.6481757500005187, 0.6985347919980995, 0.749149707997276, 0.8001118329993915, 0.8495217500021681]",381.39539341699856,,,,,,7,14,2023-10-30_19h03.58.138,WythoffsHumanExp,2023.1.3,None,
,,,,,,,,15,0,15,0,,,,,,,,,,,,,,,,,,,,,,0.00928974999987986,"[0.0, 0.0, 0.0, 0.0, 0.0, 0.0, 0.0, 0.0, 0.0, 0.0, 0.0, 0.0, 0.0, 0.0, 0.0, 0.0, 0.0, 0.0, 0.0, 0.0, 0.0, 0.0, 0.0, 0.0, 0.0, 0.0, 0.0, 0.0, 0.0, 0.0, 0.0, 0.0, 0.0, 0.0, 0.0, 0.0, 0.0, 0.0, 0.0, 0.0, 0.0, 0.0, 0.0, 0.0, 0.0, 0.0, -0.017777777777777778, -0.06333333333333334, -0.16, -0.2544444444444444, -0.3111111111111111, -0.3511111111111111, -0.37333333333333335, -0.38, -0.38, -0.38, -0.38, -0.3811111111111111, -0.4011111111111111, -0.42, -0.4266666666666667, -0.42777777777777776, -0.42777777777777776, -0.4266666666666667, -0.41333333333333333, -0.3988888888888889, -0.3877777777777778, -0.3844444444444444, -0.3844444444444444, -0.38555555555555554, -0.38666666666666666, -0.38666666666666666, -0.38666666666666666, -0.38666666666666666, -0.38666666666666666, -0.38666666666666666, -0.38666666666666666, -0.38666666666666666, -0.38666666666666666, -0.38666666666666666, -0.38666666666666666, -0.38666666666666666, -0.38666666666666666, -0.38666666666666666, -0.38666666666666666, -0.38666666666666666, -0.38666666666666666, -0.38666666666666666, -0.38666666666666666, -0.38666666666666666, -0.38666666666666666, -0.38666666666666666, -0.38666666666666666, -0.38666666666666666, -0.38666666666666666, -0.38666666666666666, -0.38666666666666666, -0.38666666666666666, -0.38666666666666666, -0.38666666666666666, -0.38666666666666666, -0.38666666666666666, -0.38666666666666666, -0.38666666666666666, -0.38666666666666666, -0.38666666666666666, -0.38666666666666666, -0.38666666666666666, -0.38666666666666666, -0.38666666666666666, -0.38666666666666666, -0.38666666666666666, -0.38666666666666666, -0.38666666666666666, -0.38666666666666666, -0.38666666666666666, -0.38666666666666666, -0.38666666666666666, -0.38666666666666666, -0.38666666666666666, -0.38666666666666666, -0.38666666666666666, -0.38666666666666666, -0.38666666666666666, -0.38666666666666666, -0.38666666666666666, -0.39, -0.39555555555555555, -0.3988888888888889, -0.4011111111111111, -0.4011111111111111, -0.4011111111111111, -0.4011111111111111, -0.4011111111111111, -0.4011111111111111, -0.4011111111111111, -0.4011111111111111, -0.4011111111111111, -0.4011111111111111, -0.4011111111111111, -0.4011111111111111, -0.4011111111111111, -0.4022222222222222, -0.4022222222222222, -0.40555555555555556, -0.4088888888888889, -0.4122222222222222, -0.41333333333333333, -0.41333333333333333, -0.41333333333333333, -0.41333333333333333, -0.4122222222222222, -0.4066666666666667, -0.3988888888888889, -0.3933333333333333, -0.3844444444444444, -0.3811111111111111, -0.37777777777777777, -0.37333333333333335, -0.3655555555555556, -0.35777777777777775, -0.3511111111111111, -0.3477777777777778, -0.34555555555555556, -0.3422222222222222, -0.3388888888888889, -0.33555555555555555, -0.33444444444444443, -0.3333333333333333, -0.3333333333333333, -0.3333333333333333, -0.3333333333333333, -0.3333333333333333, -0.3333333333333333, -0.3333333333333333, -0.3244444444444444, -0.3088888888888889, -0.29777777777777775, -0.2966666666666667, -0.2966666666666667, -0.2966666666666667, -0.2966666666666667, -0.2966666666666667, -0.3111111111111111, -0.3333333333333333, -0.34555555555555556, -0.35, -0.3511111111111111, -0.3511111111111111, -0.3511111111111111, -0.3511111111111111, -0.35, -0.35, -0.3488888888888889, -0.3488888888888889, -0.3477777777777778, -0.3477777777777778, -0.3477777777777778, -0.3477777777777778, -0.3477777777777778, -0.3477777777777778, -0.3477777777777778]","[0.0, 0.0, 0.0, 0.0, 0.0, 0.0, 0.0, 0.0, 0.0, 0.0, 0.0, 0.0, 0.0, 0.0, 0.0, 0.0, 0.0, 0.0, 0.0, 0.0, 0.0, 0.0, 0.0, 0.0, 0.0, 0.0, 0.0, 0.0, 0.0, 0.0, 0.0, 0.0, 0.0, 0.0, 0.0, 0.0, 0.0, 0.0, 0.0, 0.0, 0.0, 0.0, 0.0, 0.0, 0.0, 0.0, 0.0044444444444444444, 0.02666666666666667, 0.1, 0.1811111111111111, 0.2477777777777778, 0.29444444444444445, 0.31555555555555553, 0.3211111111111111, 0.3211111111111111, 0.3211111111111111, 0.3211111111111111, 0.3211111111111111, 0.30777777777777776, 0.2911111111111111, 0.28555555555555556, 0.2833333333333333, 0.2833333333333333, 0.28555555555555556, 0.3, 0.31555555555555553, 0.3233333333333333, 0.3233333333333333, 0.32, 0.31777777777777777, 0.31666666666666665, 0.31666666666666665, 0.31666666666666665, 0.31666666666666665, 0.31666666666666665, 0.31666666666666665, 0.31666666666666665, 0.31666666666666665, 0.31666666666666665, 0.31666666666666665, 0.31666666666666665, 0.31666666666666665, 0.31666666666666665, 0.31666666666666665, 0.31666666666666665, 0.31666666666666665, 0.31666666666666665, 0.31666666666666665, 0.31666666666666665, 0.31666666666666665, 0.31666666666666665, 0.31666666666666665, 0.31666666666666665, 0.31666666666666665, 0.31666666666666665, 0.31666666666666665, 0.31666666666666665, 0.31666666666666665, 0.31666666666666665, 0.31666666666666665, 0.31666666666666665, 0.31666666666666665, 0.31666666666666665, 0.31666666666666665, 0.31666666666666665, 0.31666666666666665, 0.31666666666666665, 0.31666666666666665, 0.31666666666666665, 0.31666666666666665, 0.31666666666666665, 0.31666666666666665, 0.31666666666666665, 0.31666666666666665, 0.31666666666666665, 0.31666666666666665, 0.31666666666666665, 0.31666666666666665, 0.31666666666666665, 0.31666666666666665, 0.31666666666666665, 0.31666666666666665, 0.31666666666666665, 0.31666666666666665, 0.31777777777777777, 0.3211111111111111, 0.33, 0.3422222222222222, 0.35777777777777775, 0.3622222222222222, 0.3622222222222222, 0.3622222222222222, 0.3622222222222222, 0.3622222222222222, 0.3622222222222222, 0.3622222222222222, 0.3622222222222222, 0.3622222222222222, 0.3622222222222222, 0.3622222222222222, 0.3611111111111111, 0.36, 0.35777777777777775, 0.35333333333333333, 0.3477777777777778, 0.34, 0.33111111111111113, 0.3277777777777778, 0.3277777777777778, 0.3277777777777778, 0.3322222222222222, 0.33555555555555555, 0.3411111111111111, 0.3466666666666667, 0.3477777777777778, 0.3488888888888889, 0.3488888888888889, 0.3488888888888889, 0.3488888888888889, 0.3477777777777778, 0.3477777777777778, 0.3477777777777778, 0.3477777777777778, 0.3477777777777778, 0.3466666666666667, 0.34555555555555556, 0.34555555555555556, 0.34444444444444444, 0.34444444444444444, 0.34444444444444444, 0.34444444444444444, 0.34444444444444444, 0.34444444444444444, 0.34555555555555556, 0.3711111111111111, 0.4011111111111111, 0.42, 0.43, 0.43, 0.43, 0.43, 0.43, 0.43, 0.42, 0.4033333333333333, 0.39444444444444443, 0.39, 0.3877777777777778, 0.37777777777777777, 0.36444444444444446, 0.36, 0.36, 0.36, 0.36, 0.36, 0.35888888888888887, 0.35555555555555557, 0.3522222222222222, 0.35, 0.35, 0.35, 0.35]","[0, 0, 0, 0, 0, 0, 0, 0, 0, 0, 0, 0, 0, 0, 0, 0, 0, 0, 0, 0, 0, 0, 0, 0, 0, 0, 0, 0, 0, 0, 0, 0, 0, 0, 0, 0, 0, 0, 0, 0, 0, 0, 0, 0, 0, 0, 0, 0, 0, 0, 0, 0, 0, 0, 0, 0, 0, 0, 0, 0, 0, 0, 0, 0, 0, 0, 0, 0, 0, 0, 0, 0, 0, 0, 0, 0, 0, 0, 0, 0, 0, 0, 0, 0, 0, 0, 0, 0, 0, 0, 0, 0, 0, 0, 0, 0, 0, 0, 0, 0, 0, 0, 0, 0, 0, 0, 0, 0, 0, 0, 0, 0, 0, 0, 0, 0, 0, 0, 0, 0, 0, 0, 0, 0, 0, 0, 0, 0, 0, 0, 0, 0, 0, 0, 0, 0, 0, 0, 0, 0, 0, 0, 0, 0, 0, 0, 0, 0, 0, 0, 0, 0, 0, 0, 0, 0, 0, 0, 0, 0, 0, 0, 0, 0, 0, 0, 0, 0, 0, 0, 0, 0, 0, 0, 0, 0, 0, 0, 0, 0, 0, 0, 0, 0, 0, 0, 0, 0, 0, 0, 0, 0, 0, 0, 0, 0, 0, 0, 0, 0, 1, 1]","[0, 0, 0, 0, 0, 0, 0, 0, 0, 0, 0, 0, 0, 0, 0, 0, 0, 0, 0, 0, 0, 0, 0, 0, 0, 0, 0, 0, 0, 0, 0, 0, 0, 0, 0, 0, 0, 0, 0, 0, 0, 0, 0, 0, 0, 0, 0, 0, 0, 0, 0, 0, 0, 0, 0, 0, 0, 0, 0, 0, 0, 0, 0, 0, 0, 0, 0, 0, 0, 0, 0, 0, 0, 0, 0, 0, 0, 0, 0, 0, 0, 0, 0, 0, 0, 0, 0, 0, 0, 0, 0, 0, 0, 0, 0, 0, 0, 0, 0, 0, 0, 0, 0, 0, 0, 0, 0, 0, 0, 0, 0, 0, 0, 0, 0, 0, 0, 0, 0, 0, 0, 0, 0, 0, 0, 0, 0, 0, 0, 0, 0, 0, 0, 0, 0, 0, 0, 0, 0, 0, 0, 0, 0, 0, 0, 0, 0, 0, 0, 0, 0, 0, 0, 0, 0, 0, 0, 0, 0, 0, 0, 0, 0, 0, 0, 0, 0, 0, 0, 0, 0, 0, 0, 0, 0, 0, 0, 0, 0, 0, 0, 0, 0, 0, 0, 0, 0, 0, 0, 0, 0, 0, 0, 0, 0, 0, 0, 0, 0, 0, 0, 0]","[0, 0, 0, 0, 0, 0, 0, 0, 0, 0, 0, 0, 0, 0, 0, 0, 0, 0, 0, 0, 0, 0, 0, 0, 0, 0, 0, 0, 0, 0, 0, 0, 0, 0, 0, 0, 0, 0, 0, 0, 0, 0, 0, 0, 0, 0, 0, 0, 0, 0, 0, 0, 0, 0, 0, 0, 0, 0, 0, 0, 0, 0, 0, 0, 0, 0, 0, 0, 0, 0, 0, 0, 0, 0, 0, 0, 0, 0, 0, 0, 0, 0, 0, 0, 0, 0, 0, 0, 0, 0, 0, 0, 0, 0, 0, 0, 0, 0, 0, 0, 0, 0, 0, 0, 0, 0, 0, 0, 0, 0, 0, 0, 0, 0, 0, 0, 0, 0, 0, 0, 0, 0, 0, 0, 0, 0, 0, 0, 0, 0, 0, 0, 0, 0, 0, 0, 0, 0, 0, 0, 0, 0, 0, 0, 0, 0, 0, 0, 0, 0, 0, 0, 0, 0, 0, 0, 0, 0, 0, 0, 0, 0, 0, 0, 0, 0, 0, 0, 0, 0, 0, 0, 0, 0, 0, 0, 0, 0, 0, 0, 0, 0, 0, 0, 0, 0, 0, 0, 0, 0, 0, 0, 0, 0, 0, 0, 0, 0, 0, 0, 0, 0]","[0.00029075000202283263, 0.049317834003886674, 0.09880441700079245, 0.1474908750024042, 0.1963616249995539, 0.24526429200341227, 0.29401095900539076, 0.34274975000153063, 0.39231458400172414, 0.4417995840049116, 0.49236725000082515, 0.5422964169993065, 0.5918978340050671, 0.6414344590011751, 0.6908991669988609, 0.740355375004583, 0.7900819589995081, 0.8399925839985372, 0.8888340839985176, 0.9375675420014886, 0.9864779999988968, 1.0353949170021224, 1.0843642920008278, 1.1329765420014155, 1.1817650840021088, 1.2304930840036832, 1.2792407919987454, 1.3279499170021154, 1.3768647920005606, 1.4265806670009624, 1.476077459003136, 1.525431000001845, 1.5748158339993097, 1.6243401669999002, 1.6740062500030035, 1.7237141670048004, 1.772950792001211, 1.8216532500009635, 1.8696181250052177, 1.9185878339994815, 1.9674781249996158, 2.0161785000018426, 2.064871167000092, 2.113583167003526, 2.1622354999999516, 2.211184833999141, 2.2602858750033192, 2.3104430419989512, 2.360821375004889, 2.410651042002428, 2.4602940420008963, 2.5103874999986147, 2.5597955839984934, 2.609834334005427, 2.65976708400558, 2.70922787499876, 2.7588704590016278, 2.809123167004145, 2.859638375004579, 2.910112666999339, 2.9604260839987546, 3.0100277500023367, 3.0597180420008954, 3.1101140000027954, 3.1609687919990392, 3.21084783400147, 3.2604157500027213, 3.3103618340028333, 3.359862292003527, 3.4101327500029583, 3.460313875002612, 3.510314459002984, 3.5607557500043185, 3.609943542003748, 3.659633292001672, 3.709615334002592, 3.7595631670046714, 3.8092362500028685, 3.8592638340051053, 3.909036584002024, 3.958708625003055, 4.007760209002299, 4.057518875000824, 4.107360334004625, 4.157533334000618, 4.207932584002265, 4.257674209002289, 4.307253874998423, 4.35662704200513, 4.405428459001996, 4.454318209005578, 4.503186375004589, 4.552181125000061, 4.600899750003009, 4.650338334002299, 4.699339083999803, 4.748579042003257, 4.797648042003857, 4.846343249999336, 4.895340667004348, 4.944198709003103, 4.993350167002063, 5.043021459001466, 5.093341542000417, 5.143015375004325, 5.192477834003512, 5.242032375004783, 5.2919285419993685, 5.341770292005094, 5.391722375003155, 5.4424843750020955, 5.491985542001203, 5.541650709004898, 5.591494167005294, 5.641477084005601, 5.691449042002205, 5.741606209005113, 5.7912117919986486, 5.840883292003127, 5.8905407920028665, 5.939725750002253, 5.988897542003542, 6.0376246250016266, 6.086284125005477, 6.1361490420022164, 6.185735334001947, 6.2351510840017, 6.284627959001227, 6.334058500004176, 6.383388041998842, 6.433807749999687, 6.484398417000193, 6.536036083998624, 6.587422959004471, 6.638713416999963, 6.690314874998876, 6.740254500000447, 6.791244042004109, 6.841744834004203, 6.89239741700294, 6.943305375003547, 6.993722375002108, 7.043670833998476, 7.094128333999834, 7.143888625003456, 7.194561000003887, 7.244495792001544, 7.293834333999257, 7.342997334002575, 7.392816667001171, 7.443172917002812, 7.493735000003653, 7.543466417002492, 7.593549709003128, 7.643977291998453, 7.693754584004637, 7.74409929200192, 7.793877333999262, 7.843313875004242, 7.8939145840049605, 7.943577250000089, 7.994099209005071, 8.04392141700373, 8.093544041999849, 8.144305292000354, 8.19416275000549, 8.243820333998883, 8.293472584002302, 8.343744541998603, 8.394159542003763, 8.443263917004515, 8.493030625002575, 8.543016125004215, 8.593221334005648, 8.643724583998846, 8.69464891700045, 8.744614250004815, 8.795031000001472, 8.84423287500249, 8.893098000000464, 8.94245575000241, 8.992337834002683, 9.043034041998908, 9.094154417005484, 9.144281209002656, 9.193969874999311, 9.243574792002619, 9.2942083750022, 9.344235167001898, 9.393991917000676, 9.44372829200438, 9.4936921250046, 9.543223167005635, 9.593502374998934, 9.64394729200285, 9.693940375000238, 9.744170042002224, 9.793513666998479, 9.843266209005378, 9.893186875000538, 9.944177000004856, 9.994302625003911]",421.2531782080041,,,,,,7,14,2023-10-30_19h03.58.138,WythoffsHumanExp,2023.1.3,None,
,,,,,,,,16,0,16,0,,,,,,,,,,,,,,,,,,,,,,0.003194874996552244,"[0.0, 0.0, 0.0, 0.0, 0.0, 0.0, -0.057777777777777775, -0.1111111111111111, -0.12666666666666668, -0.12666666666666668, -0.12666666666666668, -0.12666666666666668, -0.12666666666666668, -0.13333333333333333, -0.18555555555555556, -0.29, -0.37, -0.3977777777777778, -0.40444444444444444, -0.4077777777777778, -0.4177777777777778, -0.4211111111111111, -0.4211111111111111]","[0.0, 0.0, 0.0, 0.0, 0.0, 0.0, 0.12111111111111111, 0.19, 0.2088888888888889, 0.2088888888888889, 0.2088888888888889, 0.2088888888888889, 0.2088888888888889, 0.21, 0.23333333333333334, 0.2877777777777778, 0.3511111111111111, 0.3688888888888889, 0.37333333333333335, 0.37666666666666665, 0.39, 0.4, 0.4]","[0, 0, 0, 0, 0, 0, 0, 0, 0, 0, 0, 0, 0, 0, 0, 0, 0, 0, 0, 0, 0, 0, 1]","[0, 0, 0, 0, 0, 0, 0, 0, 0, 0, 0, 0, 0, 0, 0, 0, 0, 0, 0, 0, 0, 0, 0]","[0, 0, 0, 0, 0, 0, 0, 0, 0, 0, 0, 0, 0, 0, 0, 0, 0, 0, 0, 0, 0, 0, 0]","[0.0006279160006670281, 0.05103283300559269, 0.10109679100423818, 0.151584791005007, 0.20155104100558674, 0.25174779100052547, 0.3019162500058883, 0.35132829100621166, 0.4009059160016477, 0.45055300000240095, 0.5004962910024915, 0.5502968330038129, 0.6005046660066, 0.650518666006974, 0.7008599580003647, 0.7518490830043447, 0.80447137500596, 0.8571667080032057, 0.9104898750010761, 0.963438541002688, 1.016530541004613, 1.0696634580017417, 1.121888541005319]",447.8378520000042,,,,,,7,14,2023-10-30_19h03.58.138,WythoffsHumanExp,2023.1.3,None,
,,,,,,,,17,0,17,0,,,,,,,,,,,,,,,,,,,,,,0.035221042002376635,"[0.0, 0.0, 0.0, 0.0, 0.0, 0.0, -0.07888888888888888, -0.17333333333333334, -0.26666666666666666, -0.31666666666666665, -0.35, -0.37222222222222223, -0.38666666666666666, -0.3933333333333333, -0.4022222222222222, -0.40555555555555556, -0.4066666666666667, -0.4066666666666667]","[0.0, 0.0, 0.0, 0.0, 0.0, 0.0, 0.03888888888888889, 0.1, 0.22111111111111112, 0.3011111111111111, 0.3477777777777778, 0.37222222222222223, 0.3811111111111111, 0.38333333333333336, 0.38333333333333336, 0.38555555555555554, 0.3933333333333333, 0.39555555555555555]","[0, 0, 0, 0, 0, 0, 0, 0, 0, 0, 0, 0, 0, 0, 0, 0, 1, 1]","[0, 0, 0, 0, 0, 0, 0, 0, 0, 0, 0, 0, 0, 0, 0, 0, 0, 0]","[0, 0, 0, 0, 0, 0, 0, 0, 0, 0, 0, 0, 0, 0, 0, 0, 0, 0]","[0.0003032500026165508, 0.050095084006898105, 0.10030450000340352, 0.15089841700682882, 0.20101537500158884, 0.2511319590048515, 0.30135229200095637, 0.35167179200652754, 0.4021230420039501, 0.45234641700517386, 0.501672000005783, 0.5519355420037755, 0.6023512500032666, 0.6520430000018678, 0.7024876670038793, 0.7521574170023086, 0.8018567090039141, 0.8517327090012259]",474.92646191699896,,,,,,7,14,2023-10-30_19h03.58.138,WythoffsHumanExp,2023.1.3,None,
,,,,,,,,18,0,18,0,,,,,,,,,,,,,,,,,,,,,,0.02121820799948182,"[0.0, 0.0, 0.0, 0.0, 0.0, 0.0, 0.0, 0.0, 0.0, 0.0, 0.0, 0.0, 0.0, 0.0, 0.0, 0.0, 0.0, 0.0, 0.0, 0.0, 0.0, 0.0, 0.0, 0.0, 0.0, 0.0, 0.0, 0.0, 0.0, 0.0, 0.0, 0.0, 0.0, 0.0, 0.0, 0.0, 0.0, 0.0, 0.0, 0.0, 0.0, 0.0, 0.0, 0.0, 0.0, 0.0, 0.0, -0.0044444444444444444, -0.027777777777777776, -0.10444444444444445, -0.24333333333333335, -0.35333333333333333, -0.39666666666666667, -0.42, -0.4311111111111111, -0.43555555555555553, -0.43555555555555553, -0.43555555555555553, -0.43444444444444447]","[0.0, 0.0, 0.0, 0.0, 0.0, 0.0, 0.0, 0.0, 0.0, 0.0, 0.0, 0.0, 0.0, 0.0, 0.0, 0.0, 0.0, 0.0, 0.0, 0.0, 0.0, 0.0, 0.0, 0.0, 0.0, 0.0, 0.0, 0.0, 0.0, 0.0, 0.0, 0.0, 0.0, 0.0, 0.0, 0.0, 0.0, 0.0, 0.0, 0.0, 0.0, 0.0, 0.0, 0.0, 0.0, 0.0, 0.0, 0.0011111111111111111, 0.017777777777777778, 0.07444444444444444, 0.18888888888888888, 0.2911111111111111, 0.33, 0.36666666666666664, 0.3888888888888889, 0.4022222222222222, 0.40555555555555556, 0.40555555555555556, 0.40555555555555556]","[0, 0, 0, 0, 0, 0, 0, 0, 0, 0, 0, 0, 0, 0, 0, 0, 0, 0, 0, 0, 0, 0, 0, 0, 0, 0, 0, 0, 0, 0, 0, 0, 0, 0, 0, 0, 0, 0, 0, 0, 0, 0, 0, 0, 0, 0, 0, 0, 0, 0, 0, 0, 0, 0, 0, 0, 0, 1, 1]","[0, 0, 0, 0, 0, 0, 0, 0, 0, 0, 0, 0, 0, 0, 0, 0, 0, 0, 0, 0, 0, 0, 0, 0, 0, 0, 0, 0, 0, 0, 0, 0, 0, 0, 0, 0, 0, 0, 0, 0, 0, 0, 0, 0, 0, 0, 0, 0, 0, 0, 0, 0, 0, 0, 0, 0, 0, 0, 0]","[0, 0, 0, 0, 0, 0, 0, 0, 0, 0, 0, 0, 0, 0, 0, 0, 0, 0, 0, 0, 0, 0, 0, 0, 0, 0, 0, 0, 0, 0, 0, 0, 0, 0, 0, 0, 0, 0, 0, 0, 0, 0, 0, 0, 0, 0, 0, 0, 0, 0, 0, 0, 0, 0, 0, 0, 0, 0, 0]","[0.00031245800346368924, 0.04943670800275868, 0.09833645800244994, 0.14815725000516977, 0.19838466600049287, 0.24804525000217836, 0.29749220800295006, 0.3470540410053218, 0.39687775000493275, 0.4463854160057963, 0.49606025000684895, 0.5463628750003409, 0.5959515000067768, 0.6455860000060056, 0.6953916660058894, 0.7452282080048462, 0.7946417910061427, 0.8442460000005667, 0.893853958004911, 0.9431245410014526, 0.9921789580039331, 1.0412182500003837, 1.0901618750067428, 1.139037125001778, 1.1877453330016579, 1.2366111250012182, 1.285581957999966, 1.3348452080026618, 1.3843807080047554, 1.433083958007046, 1.4821071250044042, 1.5308363750009448, 1.5803535000013653, 1.6297226250026142, 1.6795185000009951, 1.729755541004124, 1.7797520000021905, 1.829357375005202, 1.8791328330044053, 1.9286520410023513, 1.9786344580061268, 2.0280234160018153, 2.0777891660036403, 2.128162125001836, 2.1772717910062056, 2.226314916006231, 2.2759367910039145, 2.3255612080029096, 2.3749151660013013, 2.424278791004326, 2.4741608330004965, 2.524129041004926, 2.5738896660041064, 2.62354679100099, 2.673063541005831, 2.722548916004598, 2.77196220800397, 2.8228842500029714, 2.872151958006725]",490.61474000000453,,,,,,7,14,2023-10-30_19h03.58.138,WythoffsHumanExp,2023.1.3,None,
,,,,,,,,19,0,19,0,,,,,,,,,,,,,,,,,,,,,,0.0189486660019611,"[0.0, 0.0, 0.0, 0.0, 0.0, 0.0, 0.0, 0.0, -0.016666666666666666, -0.09888888888888889, -0.23444444444444446, -0.3022222222222222, -0.33111111111111113, -0.35444444444444445, -0.36777777777777776, -0.38, -0.39222222222222225, -0.4033333333333333, -0.4111111111111111, -0.41444444444444445]","[0.0, 0.0, 0.0, 0.0, 0.0, 0.0, 0.0, 0.0, 0.0044444444444444444, 0.07, 0.23777777777777778, 0.3111111111111111, 0.3377777777777778, 0.35777777777777775, 0.36777777777777776, 0.37555555555555553, 0.38222222222222224, 0.3888888888888889, 0.39555555555555555, 0.3988888888888889]","[0, 0, 0, 0, 0, 0, 0, 0, 0, 0, 0, 0, 0, 0, 0, 0, 0, 0, 0, 1]","[0, 0, 0, 0, 0, 0, 0, 0, 0, 0, 0, 0, 0, 0, 0, 0, 0, 0, 0, 0]","[0, 0, 0, 0, 0, 0, 0, 0, 0, 0, 0, 0, 0, 0, 0, 0, 0, 0, 0, 0]","[0.0006057909995433874, 0.051541000000725035, 0.10234583300189115, 0.15347845799988136, 0.20237154100323096, 0.2512605000010808, 0.29936525000084657, 0.3493837080022786, 0.39977158299734583, 0.4502756660003797, 0.5008257910012617, 0.5508175830036635, 0.6011178330008988, 0.651365582998551, 0.7017892500007292, 0.7522257910022745, 0.8026841660030186, 0.8523408330001985, 0.9025107499983278, 0.9525232910018531]",532.8867121669973,,,,,,7,14,2023-10-30_19h03.58.138,WythoffsHumanExp,2023.1.3,None,
,,,,,,,,20,0,20,0,,,,,,,,,,,,,,,,,,,,,,0.003040625000721775,"[0.0, 0.0, 0.0, 0.0, 0.0, 0.0, 0.0, -0.07888888888888888, -0.15888888888888889, -0.21222222222222223, -0.2544444444444444, -0.2777777777777778, -0.3055555555555556, -0.3188888888888889, -0.33111111111111113, -0.3522222222222222, -0.3688888888888889, -0.38333333333333336, -0.3988888888888889, -0.40444444444444444, -0.40444444444444444]","[0.0, 0.0, 0.0, 0.0, 0.0, 0.0, 0.0, 0.12, 0.25333333333333335, 0.3322222222222222, 0.38, 0.40444444444444444, 0.42, 0.42444444444444446, 0.4222222222222222, 0.41444444444444445, 0.41, 0.4088888888888889, 0.4066666666666667, 0.40555555555555556, 0.40555555555555556]","[0, 0, 0, 0, 0, 0, 0, 0, 0, 0, 0, 0, 0, 0, 0, 0, 0, 0, 0, 1, 1]","[0, 0, 0, 0, 0, 0, 0, 0, 0, 0, 0, 0, 0, 0, 0, 0, 0, 0, 0, 0, 0]","[0, 0, 0, 0, 0, 0, 0, 0, 0, 0, 0, 0, 0, 0, 0, 0, 0, 0, 0, 0, 0]","[0.00032608400215394795, 0.05057154200039804, 0.10045745900424663, 0.1512470419984311, 0.20116691700241063, 0.2507280420031748, 0.3009334169983049, 0.3514106670045294, 0.401146542004426, 0.4517654590017628, 0.5013349590008147, 0.5507337500021094, 0.6010877919979976, 0.6515588340043905, 0.701060375002271, 0.7516685420050635, 0.8014583750045858, 0.8509447090036701, 0.9014331670041429, 0.9521460420000949, 1.001364374998957]",549.1189393329987,,,,,,7,14,2023-10-30_19h03.58.138,WythoffsHumanExp,2023.1.3,None,
,,,,,,,,21,0,21,0,,,,,,,,,,,,,,,,,,,,,,0.0365759580017766,"[0.0, 0.0, 0.0, 0.0, 0.0, 0.0, -0.06333333333333334, -0.15, -0.23, -0.27666666666666667, -0.28555555555555556, -0.28555555555555556, -0.28555555555555556, -0.28555555555555556, -0.2922222222222222, -0.31777777777777777, -0.33444444444444443, -0.3466666666666667, -0.3511111111111111, -0.3522222222222222, -0.3522222222222222, -0.3522222222222222, -0.3522222222222222, -0.3522222222222222, -0.3522222222222222, -0.3511111111111111, -0.33555555555555555, -0.32222222222222224, -0.32, -0.32, -0.32, -0.3244444444444444, -0.3388888888888889, -0.3511111111111111, -0.35333333333333333, -0.35333333333333333, -0.35333333333333333, -0.35333333333333333, -0.35333333333333333, -0.35333333333333333, -0.35333333333333333, -0.35333333333333333, -0.35333333333333333, -0.35333333333333333, -0.36333333333333334, -0.38333333333333336, -0.4022222222222222, -0.4122222222222222, -0.41555555555555557, -0.4177777777777778, -0.4177777777777778]","[0.0, 0.0, 0.0, 0.0, 0.0, 0.0, 0.06111111111111111, 0.13777777777777778, 0.1811111111111111, 0.20333333333333334, 0.20777777777777778, 0.20777777777777778, 0.20777777777777778, 0.20777777777777778, 0.20777777777777778, 0.21222222222222223, 0.22111111111111112, 0.23222222222222222, 0.23777777777777778, 0.2388888888888889, 0.24, 0.2411111111111111, 0.24222222222222223, 0.24222222222222223, 0.24222222222222223, 0.24888888888888888, 0.2866666666666667, 0.32222222222222224, 0.33, 0.33, 0.33, 0.33, 0.3322222222222222, 0.3388888888888889, 0.3411111111111111, 0.3411111111111111, 0.3411111111111111, 0.3411111111111111, 0.3411111111111111, 0.3411111111111111, 0.3411111111111111, 0.3411111111111111, 0.3411111111111111, 0.3411111111111111, 0.3488888888888889, 0.3711111111111111, 0.39444444444444443, 0.4066666666666667, 0.4111111111111111, 0.4122222222222222, 0.41333333333333333]","[0, 0, 0, 0, 0, 0, 0, 0, 0, 0, 0, 0, 0, 0, 0, 0, 0, 0, 0, 0, 0, 0, 0, 0, 0, 0, 0, 0, 0, 0, 0, 0, 0, 0, 0, 0, 0, 0, 0, 0, 0, 0, 0, 0, 0, 0, 0, 0, 0, 1, 1]","[0, 0, 0, 0, 0, 0, 0, 0, 0, 0, 0, 0, 0, 0, 0, 0, 0, 0, 0, 0, 0, 0, 0, 0, 0, 0, 0, 0, 0, 0, 0, 0, 0, 0, 0, 0, 0, 0, 0, 0, 0, 0, 0, 0, 0, 0, 0, 0, 0, 0, 0]","[0, 0, 0, 0, 0, 0, 0, 0, 0, 0, 0, 0, 0, 0, 0, 0, 0, 0, 0, 0, 0, 0, 0, 0, 0, 0, 0, 0, 0, 0, 0, 0, 0, 0, 0, 0, 0, 0, 0, 0, 0, 0, 0, 0, 0, 0, 0, 0, 0, 0, 0]","[0.00033762500243028626, 0.050517333002062514, 0.10093620800034842, 0.15143733300647, 0.20095575000596, 0.25093691700021736, 0.30152900000393856, 0.3509810000032303, 0.4013727920028032, 0.45084433300507953, 0.5003010830041603, 0.55003129200486, 0.5999190420043305, 0.6501724580011796, 0.7009240000043064, 0.7513434170032269, 0.8011080830037827, 0.8514788750035223, 0.9009442500027944, 0.9516069580058684, 1.0014571250067092, 1.0510168330001761, 1.1010149580033612, 1.150930125004379, 1.201307250004902, 1.251966125004401, 1.3019303750043036, 1.3514702920001582, 1.400916208003764, 1.4507760830019834, 1.5008187080020434, 1.5513477500062436, 1.6018056250031805, 1.6515079580058227, 1.700800167003763, 1.7502557920015533, 1.7999004580051405, 1.8499511250047362, 1.900917875005689, 1.950460457999725, 2.00011133299995, 2.0499086670024553, 2.0998433330023545, 2.149915375004639, 2.2010131670031114, 2.251028792001307, 2.301538583000365, 2.3512722920058877, 2.4017880000028526, 2.4522797919998993, 2.501504500003648]",578.6567068330041,,,,,,7,14,2023-10-30_19h03.58.138,WythoffsHumanExp,2023.1.3,None,
,,,,,,,,22,0,22,0,,,,,,,,,,,,,,,,,,,,,,0.04271533300197916,"[0.0, 0.0, 0.0, 0.0, 0.0, 0.0, 0.0, 0.0, 0.0, -0.0011111111111111111, -0.042222222222222223, -0.1711111111111111, -0.3411111111111111, -0.43444444444444447, -0.46, -0.4722222222222222, -0.48, -0.4822222222222222, -0.45666666666666667, -0.4266666666666667, -0.4222222222222222, -0.4211111111111111, -0.4211111111111111]","[0.0, 0.0, 0.0, 0.0, 0.0, 0.0, 0.0, 0.0, 0.0, 0.0, 0.024444444444444446, 0.14555555555555555, 0.3411111111111111, 0.44666666666666666, 0.47, 0.47888888888888886, 0.48444444444444446, 0.48444444444444446, 0.4444444444444444, 0.40555555555555556, 0.4011111111111111, 0.4011111111111111, 0.4011111111111111]","[0, 0, 0, 0, 0, 0, 0, 0, 0, 0, 0, 0, 0, 0, 0, 0, 0, 0, 0, 0, 0, 1, 1]","[0, 0, 0, 0, 0, 0, 0, 0, 0, 0, 0, 0, 0, 0, 0, 0, 0, 0, 0, 0, 0, 0, 0]","[0, 0, 0, 0, 0, 0, 0, 0, 0, 0, 0, 0, 0, 0, 0, 0, 0, 0, 0, 0, 0, 0, 0]","[0.0008899590029614046, 0.05397804200038081, 0.10652262499934295, 0.15747770899906754, 0.20677858399722027, 0.2556428340030834, 0.3045913340029074, 0.35506954199809115, 0.40535058399837, 0.455294084000343, 0.5052103339985479, 0.5554323750038748, 0.6052595419969293, 0.6556412499994622, 0.7048719169979449, 0.754777499998454, 0.8048457920012879, 0.8550442499981727, 0.906469499997911, 0.9566311669987044, 1.006280624998908, 1.0554507920023752, 1.1054579999981797]",640.8386672920024,,,,,,7,14,2023-10-30_19h03.58.138,WythoffsHumanExp,2023.1.3,None,
,,,,,,,,23,0,23,0,,,,,,,,,,,,,,,,,,,,,,0.038452125001640525,"[0.0, 0.0, 0.0, 0.0, 0.0, 0.0, 0.0, 0.0, 0.0, 0.0, 0.0, 0.0, -0.005555555555555556, -0.07222222222222222, -0.19555555555555557, -0.2722222222222222, -0.32555555555555554, -0.3488888888888889, -0.35555555555555557, -0.3611111111111111, -0.37333333333333335, -0.3933333333333333, -0.40444444444444444, -0.4066666666666667]","[0.0, 0.0, 0.0, 0.0, 0.0, 0.0, 0.0, 0.0, 0.0, 0.0, 0.0, 0.0, 0.0033333333333333335, 0.056666666666666664, 0.1688888888888889, 0.24888888888888888, 0.3088888888888889, 0.33444444444444443, 0.3411111111111111, 0.3488888888888889, 0.36333333333333334, 0.39111111111111113, 0.4066666666666667, 0.4088888888888889]","[0, 0, 0, 0, 0, 0, 0, 0, 0, 0, 0, 0, 0, 0, 0, 0, 0, 0, 0, 0, 0, 0, 1, 1]","[0, 0, 0, 0, 0, 0, 0, 0, 0, 0, 0, 0, 0, 0, 0, 0, 0, 0, 0, 0, 0, 0, 0, 0]","[0, 0, 0, 0, 0, 0, 0, 0, 0, 0, 0, 0, 0, 0, 0, 0, 0, 0, 0, 0, 0, 0, 0, 0]","[0.0003339159957249649, 0.049429582999437116, 0.09822883299784735, 0.14761466599884443, 0.19631120799749624, 0.24642612499883398, 0.2960761249996722, 0.34554458299680846, 0.39500091599620646, 0.44461533299909206, 0.4943920000005164, 0.5451030409967643, 0.5953602079971461, 0.6456371659951401, 0.6959135829965817, 0.7464721659998759, 0.7967031660009525, 0.8469660409973585, 0.8977091659980942, 0.9472077499958687, 0.9974576659951708, 1.0478901659953408, 1.0982537909949315, 1.1476339159999043]",650.0673318749978,,,,,,7,14,2023-10-30_19h03.58.138,WythoffsHumanExp,2023.1.3,None,
,,,,,,,,24,0,24,0,,,,,,,,,,,,,,,,,,,,,,0.010081124994030688,"[0.0, 0.0, 0.0, 0.0, 0.0, 0.0, -0.03777777777777778, -0.06333333333333334, -0.06444444444444444, -0.06444444444444444, -0.06444444444444444, -0.06444444444444444, -0.06444444444444444, -0.06444444444444444, -0.12111111111111111, -0.2577777777777778, -0.32555555555555554, -0.3477777777777778, -0.35333333333333333, -0.35555555555555557, -0.36666666666666664, -0.3844444444444444, -0.3988888888888889, -0.4033333333333333]","[0.0, 0.0, 0.0, 0.0, 0.0, 0.0, 0.034444444444444444, 0.12444444444444444, 0.13111111111111112, 0.13111111111111112, 0.13111111111111112, 0.13111111111111112, 0.13111111111111112, 0.13111111111111112, 0.17444444444444446, 0.31333333333333335, 0.38, 0.3977777777777778, 0.4, 0.4, 0.4022222222222222, 0.4033333333333333, 0.40444444444444444, 0.40444444444444444]","[0, 0, 0, 0, 0, 0, 0, 0, 0, 0, 0, 0, 0, 0, 0, 0, 0, 0, 0, 0, 0, 0, 0, 1]","[0, 0, 0, 0, 0, 0, 0, 0, 0, 0, 0, 0, 0, 0, 0, 0, 0, 0, 0, 0, 0, 0, 0, 0]","[0, 0, 0, 0, 0, 0, 0, 0, 0, 0, 0, 0, 0, 0, 0, 0, 0, 0, 0, 0, 0, 0, 0, 0]","[0.0006457499985117465, 0.05136662499717204, 0.10231675000250107, 0.1527728329965612, 0.20295666599849937, 0.2532449580030516, 0.3036461660012719, 0.35308716599683976, 0.40332379099709215, 0.4525906249982654, 0.5021878749976167, 0.5518999580017407, 0.6017540410030051, 0.6522369160011294, 0.7039126250019763, 0.7539634580025449, 0.8038429579974036, 0.8533626659991569, 0.9028713329971652, 0.953586625000753, 1.0033884579970618, 1.053381083002023, 1.1031578749971231, 1.1539157910010545]",692.2891235420029,,,,,,7,14,2023-10-30_19h03.58.138,WythoffsHumanExp,2023.1.3,None,
,,,,,,,,25,0,25,0,,,,,,,,,,,,,,,,,,,,,,0.017140707997896243,"[0.0, 0.0, 0.0, 0.0, 0.0, 0.0, -0.03, -0.05, -0.05, -0.05, -0.05, -0.05, -0.05, -0.05, -0.10888888888888888, -0.22111111111111112, -0.27, -0.29777777777777775, -0.3333333333333333, -0.3622222222222222, -0.38333333333333336, -0.39444444444444443, -0.3977777777777778, -0.3977777777777778]","[0.0, 0.0, 0.0, 0.0, 0.0, 0.0, 0.03666666666666667, 0.05555555555555555, 0.05555555555555555, 0.05555555555555555, 0.05555555555555555, 0.05555555555555555, 0.05555555555555555, 0.05555555555555555, 0.12111111111111111, 0.24666666666666667, 0.29444444444444445, 0.3277777777777778, 0.3611111111111111, 0.38666666666666666, 0.4066666666666667, 0.41333333333333333, 0.41333333333333333, 0.41333333333333333]","[0, 0, 0, 0, 0, 0, 0, 0, 0, 0, 0, 0, 0, 0, 0, 0, 0, 0, 0, 0, 0, 0, 1, 1]","[0, 0, 0, 0, 0, 0, 0, 0, 0, 0, 0, 0, 0, 0, 0, 0, 0, 0, 0, 0, 0, 0, 0, 0]","[0, 0, 0, 0, 0, 0, 0, 0, 0, 0, 0, 0, 0, 0, 0, 0, 0, 0, 0, 0, 0, 0, 0, 0]","[0.0006620409985771403, 0.05078991600021254, 0.10062279099656735, 0.15065224999852944, 0.200636832996679, 0.251053583000612, 0.30093549999583047, 0.35024349999730475, 0.3992923330006306, 0.44834595800057286, 0.4974154160008766, 0.5464216659966041, 0.595513166001183, 0.6455455830000574, 0.6953814160006004, 0.7449791249964619, 0.7946661659952952, 0.8444216659991071, 0.8942370410004514, 0.9446452080010204, 0.9949984580016462, 1.0449424999969779, 1.0953767499959213, 1.1447493329978897]",698.9910559999989,,,,,,7,14,2023-10-30_19h03.58.138,WythoffsHumanExp,2023.1.3,None,
,,,,,,,,26,0,26,0,,,,,,,,,,,,,,,,,,,,,,0.0069637499982491136,"[0.0, 0.0, 0.0, 0.0, 0.0, 0.0, -0.08222222222222222, -0.2111111111111111, -0.2777777777777778, -0.32555555555555554, -0.35, -0.36444444444444446, -0.3711111111111111, -0.3811111111111111, -0.39, -0.39555555555555555, -0.3977777777777778]","[0.0, 0.0, 0.0, 0.0, 0.0, 0.0, 0.08333333333333333, 0.21, 0.2788888888888889, 0.31777777777777777, 0.3466666666666667, 0.3611111111111111, 0.36444444444444446, 0.37, 0.38666666666666666, 0.4, 0.4033333333333333]","[0, 0, 0, 0, 0, 0, 0, 0, 0, 0, 0, 0, 0, 0, 0, 0, 1]","[0, 0, 0, 0, 0, 0, 0, 0, 0, 0, 0, 0, 0, 0, 0, 0, 0]","[0, 0, 0, 0, 0, 0, 0, 0, 0, 0, 0, 0, 0, 0, 0, 0, 0]","[0.000342790997819975, 0.04984637499728706, 0.0993008329969598, 0.14905862500017975, 0.19901808300346602, 0.24852575000113575, 0.29839137499948265, 0.34884312500071246, 0.39838866599893663, 0.4480592500040075, 0.4983191249993979, 0.54779629100085, 0.5978158330035512, 0.6481126660000882, 0.6987847499985946, 0.748861083004158, 0.7994248750037514]",712.1329287080007,,,,,,7,14,2023-10-30_19h03.58.138,WythoffsHumanExp,2023.1.3,None,
,,,,,,,,27,0,27,0,,,,,,,,,,,,,,,,,,,,,,0.01635929199983366,"[0.0, 0.0, 0.0, 0.0, 0.0, 0.0, 0.0, 0.0, 0.0, 0.0, -0.0022222222222222222, -0.06555555555555556, -0.15777777777777777, -0.2677777777777778, -0.34555555555555556, -0.39111111111111113, -0.4122222222222222, -0.4177777777777778, -0.4177777777777778, -0.4122222222222222, -0.4, -0.39, -0.38555555555555554, -0.38555555555555554, -0.38666666666666666, -0.3877777777777778, -0.3877777777777778, -0.3877777777777778, -0.3877777777777778, -0.3844444444444444, -0.37666666666666665, -0.37222222222222223, -0.37, -0.37, -0.3688888888888889, -0.36666666666666664, -0.3611111111111111, -0.36, -0.35888888888888887, -0.35888888888888887, -0.35888888888888887, -0.3566666666666667, -0.3511111111111111, -0.3466666666666667, -0.3422222222222222, -0.34, -0.33555555555555555, -0.3288888888888889, -0.32666666666666666, -0.32222222222222224, -0.3188888888888889, -0.31666666666666665, -0.31555555555555553, -0.31222222222222223, -0.3088888888888889, -0.3055555555555556, -0.30444444444444446, -0.30444444444444446, -0.30444444444444446, -0.30444444444444446, -0.30444444444444446, -0.30444444444444446, -0.30444444444444446, -0.30444444444444446, -0.30444444444444446, -0.30444444444444446, -0.30444444444444446, -0.30444444444444446, -0.30444444444444446, -0.30444444444444446, -0.30444444444444446, -0.30444444444444446, -0.30444444444444446, -0.30444444444444446, -0.30444444444444446, -0.31555555555555553, -0.32555555555555554, -0.32666666666666666, -0.32666666666666666, -0.32555555555555554, -0.32555555555555554, -0.3388888888888889, -0.3522222222222222, -0.35333333333333333, -0.35333333333333333, -0.35, -0.33555555555555555, -0.3233333333333333, -0.31666666666666665, -0.31666666666666665]","[0.0, 0.0, 0.0, 0.0, 0.0, 0.0, 0.0, 0.0, 0.0, 0.0, 0.0022222222222222222, 0.08333333333333333, 0.19444444444444445, 0.30444444444444446, 0.3888888888888889, 0.45, 0.4766666666666667, 0.4811111111111111, 0.4811111111111111, 0.47, 0.44555555555555554, 0.42333333333333334, 0.4088888888888889, 0.39666666666666667, 0.38666666666666666, 0.3844444444444444, 0.38333333333333336, 0.3811111111111111, 0.37, 0.36444444444444446, 0.3611111111111111, 0.36, 0.35888888888888887, 0.35888888888888887, 0.35777777777777775, 0.3566666666666667, 0.35444444444444445, 0.35333333333333333, 0.35333333333333333, 0.35333333333333333, 0.35333333333333333, 0.3522222222222222, 0.35, 0.3488888888888889, 0.3466666666666667, 0.3466666666666667, 0.3511111111111111, 0.3622222222222222, 0.36777777777777776, 0.37444444444444447, 0.3811111111111111, 0.3844444444444444, 0.38555555555555554, 0.3877777777777778, 0.39222222222222225, 0.39555555555555555, 0.39666666666666667, 0.3977777777777778, 0.3977777777777778, 0.3977777777777778, 0.3977777777777778, 0.3977777777777778, 0.3977777777777778, 0.3977777777777778, 0.3977777777777778, 0.3977777777777778, 0.3977777777777778, 0.3977777777777778, 0.3977777777777778, 0.3977777777777778, 0.3977777777777778, 0.3977777777777778, 0.3977777777777778, 0.3977777777777778, 0.3977777777777778, 0.3877777777777778, 0.3811111111111111, 0.38333333333333336, 0.38666666666666666, 0.38666666666666666, 0.38555555555555554, 0.36777777777777776, 0.3566666666666667, 0.35444444444444445, 0.35444444444444445, 0.36, 0.37777777777777777, 0.39222222222222225, 0.3988888888888889, 0.4]","[0, 0, 0, 0, 0, 0, 0, 0, 0, 0, 0, 0, 0, 0, 0, 0, 0, 0, 0, 0, 0, 0, 0, 0, 0, 0, 0, 0, 0, 0, 0, 0, 0, 0, 0, 0, 0, 0, 0, 0, 0, 0, 0, 0, 0, 0, 0, 0, 0, 0, 0, 0, 0, 0, 0, 0, 0, 0, 0, 0, 0, 0, 0, 0, 0, 0, 0, 0, 0, 0, 0, 0, 0, 0, 0, 0, 0, 0, 0, 0, 0, 0, 0, 0, 0, 0, 0, 0, 1, 1]","[0, 0, 0, 0, 0, 0, 0, 0, 0, 0, 0, 0, 0, 0, 0, 0, 0, 0, 0, 0, 0, 0, 0, 0, 0, 0, 0, 0, 0, 0, 0, 0, 0, 0, 0, 0, 0, 0, 0, 0, 0, 0, 0, 0, 0, 0, 0, 0, 0, 0, 0, 0, 0, 0, 0, 0, 0, 0, 0, 0, 0, 0, 0, 0, 0, 0, 0, 0, 0, 0, 0, 0, 0, 0, 0, 0, 0, 0, 0, 0, 0, 0, 0, 0, 0, 0, 0, 0, 0, 0]","[0, 0, 0, 0, 0, 0, 0, 0, 0, 0, 0, 0, 0, 0, 0, 0, 0, 0, 0, 0, 0, 0, 0, 0, 0, 0, 0, 0, 0, 0, 0, 0, 0, 0, 0, 0, 0, 0, 0, 0, 0, 0, 0, 0, 0, 0, 0, 0, 0, 0, 0, 0, 0, 0, 0, 0, 0, 0, 0, 0, 0, 0, 0, 0, 0, 0, 0, 0, 0, 0, 0, 0, 0, 0, 0, 0, 0, 0, 0, 0, 0, 0, 0, 0, 0, 0, 0, 0, 0, 0]","[0.0003495419950922951, 0.04948720799438888, 0.09854170799371786, 0.14735958299570484, 0.19637287499790546, 0.24589808299788274, 0.2954748749980354, 0.3449272919970099, 0.3939360829972429, 0.44316220799373696, 0.4930798329951358, 0.5428216669970425, 0.5925853329972597, 0.6431965829979163, 0.6933372499988764, 0.7429909579950618, 0.7924615829979302, 0.8425850419953349, 0.8930617499936488, 0.9431038749971776, 0.993169791996479, 1.042647707996366, 1.0922400829949765, 1.1426874999961, 1.1932596249971539, 1.243744332998176, 1.2938799999974435, 1.343541082998854, 1.3936107079935027, 1.443269124996732, 1.4930307920003543, 1.5427619169931859, 1.5934016669998528, 1.6430006249938742, 1.6924487500000396, 1.7424270419942332, 1.792894416998024, 1.8430257919972064, 1.8924676249953336, 1.9425014999942505, 1.9926155419962015, 2.043157791995327, 2.093420832999982, 2.14311241699761, 2.1933750419993885, 2.243171499998425, 2.292826624994632, 2.342539207995287, 2.3932149579995894, 2.4434907079994446, 2.493429791997187, 2.543193416997383, 2.5929224169958616, 2.642561916996783, 2.692800291995809, 2.7427655829960713, 2.792725666993647, 2.8422197079999023, 2.8918681669965736, 2.94192829199892, 2.9919575419989997, 3.0421164999934263, 3.0924571249997825, 3.142412957997294, 3.191978167000343, 3.2417502499956754, 3.2915681669983314, 3.3415875829959987, 3.391632249993563, 3.4413818749962957, 3.4919578329936485, 3.541633707995061, 3.5915211249957792, 3.641435207995528, 3.6919606249939534, 3.7440418749974924, 3.7936143329934566, 3.8435268749963143, 3.8930897079990245, 3.9424459579968243, 3.9932916249963455, 4.043634374997055, 4.093617416998313, 4.1431542499994976, 4.192626541997015, 4.242629291999037, 4.292301874993427, 4.343089416994189, 4.393861582997488, 4.443240874999901]",726.5909482920033,,,,,,7,14,2023-10-30_19h03.58.138,WythoffsHumanExp,2023.1.3,None,
,,,,,,,,28,0,28,0,,,,,,,,,,,,,,,,,,,,,,0.03952845799358329,"[0.0, 0.0, 0.0, 0.0, 0.0, 0.0, 0.0, 0.0, 0.0, 0.0, 0.0, 0.0, -0.0022222222222222222, -0.043333333333333335, -0.14222222222222222, -0.2788888888888889, -0.35333333333333333, -0.3977777777777778, -0.41333333333333333, -0.4177777777777778, -0.42333333333333334, -0.4288888888888889, -0.42777777777777776, -0.4211111111111111, -0.4177777777777778, -0.4166666666666667]","[0.0, 0.0, 0.0, 0.0, 0.0, 0.0, 0.0, 0.0, 0.0, 0.0, 0.0, 0.0, 0.0033333333333333335, 0.07222222222222222, 0.21333333333333335, 0.4033333333333333, 0.49, 0.5, 0.5, 0.4988888888888889, 0.4855555555555556, 0.4622222222222222, 0.44666666666666666, 0.43555555555555553, 0.43, 0.4288888888888889]","[0, 0, 0, 0, 0, 0, 0, 0, 0, 0, 0, 0, 0, 0, 0, 0, 0, 0, 0, 0, 0, 0, 0, 0, 0, 1]","[0, 0, 0, 0, 0, 0, 0, 0, 0, 0, 0, 0, 0, 0, 0, 0, 0, 0, 0, 0, 0, 0, 0, 0, 0, 0]","[0, 0, 0, 0, 0, 0, 0, 0, 0, 0, 0, 0, 0, 0, 0, 0, 0, 0, 0, 0, 0, 0, 0, 0, 0, 0]","[0.0003440420041442849, 0.05051170899969293, 0.1005209590002778, 0.15027937500417465, 0.1992216250000638, 0.24799287500354694, 0.29693491700163577, 0.3458888340028352, 0.39466695900046034, 0.4433330840038252, 0.4921467500025756, 0.5409709169980488, 0.5911677090043668, 0.6405704589997185, 0.6901676249981392, 0.7396020840023994, 0.7892500840025605, 0.8387062500041793, 0.8880213750016992, 0.9380237919976935, 0.9876542089987197, 1.037293667002814, 1.0882516670026234, 1.1408282499978668, 1.1937133750034263, 1.24667225000303]",735.5863251249975,,,,,,7,14,2023-10-30_19h03.58.138,WythoffsHumanExp,2023.1.3,None,
,,,,,,,,29,0,29,0,,,,,,,,,,,,,,,,,,,,,,,[],[],[],[],[],[],742.1356020000021,,,,,,7,14,2023-10-30_19h03.58.138,WythoffsHumanExp,2023.1.3,None,
,,,,,,,,,,,,,,,,,,,,,,,,,,,,,,,,,,,,,,,,,,,,,,7,14,2023-10-30_19h03.58.138,WythoffsHumanExp,2023.1.3,None,
,,,,,,,,,,,,,,,,,,,,,,,,,,,,,,,,,,,,,,,,,,742.695180499999,,,,7,14,2023-10-30_19h03.58.138,WythoffsHumanExp,2023.1.3,None,
,,,,,,,,,,,,,,,,,,,,,,,,,,,,,,,,,,,,,,,,,,,751.4666850830035,,,7,14,2023-10-30_19h03.58.138,WythoffsHumanExp,2023.1.3,None,
,,,,,,,,,,,,,,,,,,,,,,,,,,,,,,,,,,,,,,,,,,,,1307.2795779169974,,7,14,2023-10-30_19h03.58.138,WythoffsHumanExp,2023.1.3,None,
,,,,,,,,,,,,,,,,,,,,,,,,,,,,,,,,,0.027884041002835147,"[0.0, 0.0, 0.0, 0.0, 0.0, 0.0, 0.0, 0.0, 0.0, -0.07888888888888888, -0.2288888888888889, -0.3622222222222222, -0.4177777777777778, -0.43222222222222223, -0.43666666666666665, -0.44, -0.44, -0.43222222222222223, -0.42333333333333334, -0.4166666666666667, -0.41444444444444445, -0.41333333333333333]","[0.0, 0.0, 0.0, 0.0, 0.0, 0.0, 0.0, 0.0, 0.0, 0.08666666666666667, 0.24, 0.39555555555555555, 0.46555555555555556, 0.48333333333333334, 0.4855555555555556, 0.4855555555555556, 0.48, 0.4577777777777778, 0.4411111111111111, 0.4311111111111111, 0.42444444444444446, 0.4222222222222222]","[0, 0, 0, 0, 0, 0, 0, 0, 0, 0, 0, 0, 0, 0, 0, 0, 0, 0, 0, 0, 0, 1]","[0, 0, 0, 0, 0, 0, 0, 0, 0, 0, 0, 0, 0, 0, 0, 0, 0, 0, 0, 0, 0, 0]","[0, 0, 0, 0, 0, 0, 0, 0, 0, 0, 0, 0, 0, 0, 0, 0, 0, 0, 0, 0, 0, 0]","[0.0003519999954733066, 0.04953429099987261, 0.09855920799600426, 0.14748291599971708, 0.1962962499965215, 0.2453192909961217, 0.29430870799842523, 0.34311966599489097, 0.39261454100051196, 0.44317804100137437, 0.493154499999946, 0.5430583330016816, 0.5926839579988155, 0.6426963749981951, 0.6932386249973206, 0.7424153749961988, 0.7916911659995094, 0.8422296659991844, 0.8926913749965024, 0.9430405409948435, 0.9932892500000889, 1.0437236249999842]",1931.4217332499975,,,,,1933.870789792003,7,14,2023-10-30_19h03.58.138,WythoffsHumanExp,2023.1.3,None,
