practice_games.thisRepN,practice_games.thisTrialN,practice_games.thisN,practice_games.thisIndex,practice_turns.thisRepN,practice_turns.thisTrialN,practice_turns.thisN,practice_turns.thisIndex,double_click_1.thisRepN,double_click_1.thisTrialN,double_click_1.thisN,double_click_1.thisIndex,games.thisRepN,games.thisTrialN,games.thisN,games.thisIndex,turns.thisRepN,turns.thisTrialN,turns.thisN,turns.thisIndex,double_click_2.thisRepN,double_click_2.thisTrialN,double_click_2.thisN,double_click_2.thisIndex,intervention_games.thisRepN,intervention_games.thisTrialN,intervention_games.thisN,intervention_games.thisIndex,intervention_moves.thisRepN,intervention_moves.thisTrialN,intervention_moves.thisN,intervention_moves.thisIndex,double_click_3.thisRepN,double_click_3.thisTrialN,double_click_3.thisN,double_click_3.thisIndex,more_games.thisRepN,more_games.thisTrialN,more_games.thisN,more_games.thisIndex,more_turns.thisRepN,more_turns.thisTrialN,more_turns.thisN,more_turns.thisIndex,tutorial_games.thisRepN,tutorial_games.thisTrialN,tutorial_games.thisN,tutorial_games.thisIndex,tutorial_turns.thisRepN,tutorial_turns.thisTrialN,tutorial_turns.thisN,tutorial_turns.thisIndex,double_click_4.thisRepN,double_click_4.thisTrialN,double_click_4.thisN,double_click_4.thisIndex,new_games.thisRepN,new_games.thisTrialN,new_games.thisN,new_games.thisIndex,turns_4.thisRepN,turns_4.thisTrialN,turns_4.thisN,turns_4.thisIndex,section_0_text.started,mouse.started,mouse.x,mouse.y,mouse.leftButton,mouse.midButton,mouse.rightButton,mouse.time,status_text.started,section_1_text.started,recall_text.started,section_2_text.started,section_3_text.started,nim_text.started,section_4_text.started,end_text.started,participant,session,date,expName,psychopyVersion,frameRate,
,,,,,,,,,,,,,,,,,,,,,,,,,,,,,,,,,,,,,,,,,,,,,,,,,,,,,,,,,,,,,,,,,,,,,,,,,,,,,,,,921191,001,2024-02-05_16h18.39.649,WythoffsHumanExp,2023.1.3,None,
,,,,,,,,,,,,,,,,,,,,,,,,,,,,,,,,,,,,,,,,,,,,,,,,,,,,,,,,,,,,,,,,,,,,,,,,,,,,,,,,921191,001,2024-02-05_16h18.39.649,WythoffsHumanExp,2023.1.3,None,
,,,,,,,,,,,,,,,,,,,,,,,,,,,,,,,,,,,,,,,,,,,,,,,,,,,,,,,,,,,,,,,,13.534234250000736,,,,,,,,,,,,,,,,921191,001,2024-02-05_16h18.39.649,WythoffsHumanExp,2023.1.3,None,
,,,,,,,,,,,,0,0,0,0,,,,,,,,,,,,,,,,,,,,,,,,,,,,,,,,,,,,,,,,,,,,,,,,,,0.016949332995864097,"[0.0, 0.0, 0.0, 0.0, 0.0, 0.0, 0.0, -0.0033333333333333335, -0.07, -0.22, -0.32, -0.37666666666666665, -0.39444444444444443, -0.40444444444444444, -0.41333333333333333, -0.4166666666666667, -0.4166666666666667]","[0.0, 0.0, 0.0, 0.0, 0.0, 0.0, 0.0, 0.0, 0.025555555555555557, 0.09222222222222222, 0.14777777777777779, 0.18222222222222223, 0.19666666666666666, 0.20666666666666667, 0.21666666666666667, 0.22444444444444445, 0.22555555555555556]","[0, 0, 0, 0, 0, 0, 0, 0, 0, 0, 0, 0, 0, 0, 0, 1, 0]","[0, 0, 0, 0, 0, 0, 0, 0, 0, 0, 0, 0, 0, 0, 0, 0, 0]","[0, 0, 0, 0, 0, 0, 0, 0, 0, 0, 0, 0, 0, 0, 0, 0, 0]","[0.00017166599718621, 0.050515957998868544, 0.099416666002071, 0.1480282909978996, 0.1963869160026661, 0.24493424999673152, 0.2939055829992867, 0.34327425000083167, 0.39269504100229824, 0.44194566599617247, 0.4914506659988547, 0.5412324159988202, 0.5908709579962306, 0.6403388749968144, 0.689299249999749, 0.7395348749996629, 0.7892090000023018]",60.30287183300243,48.38174291600444,,,,,,,921191,001,2024-02-05_16h18.39.649,WythoffsHumanExp,2023.1.3,None,
,,,,,,,,,,,,1,0,1,0,,,,,,,,,,,,,,,,,,,,,,,,,,,,,,,,,,,,,,,,,,,,,,,,,,0.016944500006502494,"[0.0, 0.0, 0.0, 0.0, 0.0, 0.0, 0.0, 0.0, -0.015555555555555555, -0.07666666666666666, -0.18444444444444444, -0.25, -0.27111111111111114, -0.27666666666666667, -0.2777777777777778, -0.28, -0.28444444444444444, -0.28444444444444444, -0.28444444444444444, -0.28444444444444444, -0.28444444444444444, -0.29, -0.3011111111111111, -0.3055555555555556, -0.3055555555555556]","[0.0, 0.0, 0.0, 0.0, 0.0, 0.0, 0.0, 0.0, 0.021111111111111112, 0.1, 0.22666666666666666, 0.3111111111111111, 0.34444444444444444, 0.35555555555555557, 0.36, 0.36777777777777776, 0.37555555555555553, 0.37666666666666665, 0.37666666666666665, 0.37666666666666665, 0.37666666666666665, 0.38555555555555554, 0.4066666666666667, 0.4177777777777778, 0.41888888888888887]","[0, 0, 0, 0, 0, 0, 0, 0, 0, 0, 0, 0, 0, 0, 0, 0, 0, 0, 0, 0, 0, 0, 0, 1, 0]","[0, 0, 0, 0, 0, 0, 0, 0, 0, 0, 0, 0, 0, 0, 0, 0, 0, 0, 0, 0, 0, 0, 0, 0, 0]","[0, 0, 0, 0, 0, 0, 0, 0, 0, 0, 0, 0, 0, 0, 0, 0, 0, 0, 0, 0, 0, 0, 0, 0, 0]","[0.00017425000260118395, 0.05046845800097799, 0.09906087499985006, 0.1476482500002021, 0.19643154100049287, 0.24461283300479408, 0.2938017080014106, 0.3440319580040523, 0.3950632910054992, 0.4449596660051611, 0.4951256660060608, 0.5451780000003055, 0.5953298330059624, 0.6450747500057332, 0.6948038330010604, 0.7446261660006712, 0.7937428330042167, 0.8430747500024154, 0.8923237910057651, 0.9410136250007781, 0.9899618330018711, 1.0397860830053105, 1.089439958006551, 1.1392761250026524, 1.1888867080051568]",72.10376225000073,,,,,,,,921191,001,2024-02-05_16h18.39.649,WythoffsHumanExp,2023.1.3,None,
,,,,,,,,,,,,2,0,2,0,,,,,,,,,,,,,,,,,,,,,,,,,,,,,,,,,,,,,,,,,,,,,,,,,,0.016992500000924338,"[0.0, 0.0, 0.0, 0.0, 0.0, 0.0, 0.0, 0.0, -0.03111111111111111, -0.1111111111111111, -0.21444444444444444, -0.2877777777777778, -0.3288888888888889, -0.3411111111111111, -0.35444444444444445, -0.36777777777777776, -0.37666666666666665, -0.3888888888888889, -0.4022222222222222, -0.4066666666666667]","[0.0, 0.0, 0.0, 0.0, 0.0, 0.0, 0.0, 0.0, 0.027777777777777776, 0.10111111111111111, 0.20555555555555555, 0.28444444444444444, 0.3322222222222222, 0.3511111111111111, 0.36333333333333334, 0.37444444444444447, 0.3811111111111111, 0.3888888888888889, 0.4011111111111111, 0.40555555555555556]","[0, 0, 0, 0, 0, 0, 0, 0, 0, 0, 0, 0, 0, 0, 0, 0, 0, 0, 0, 1]","[0, 0, 0, 0, 0, 0, 0, 0, 0, 0, 0, 0, 0, 0, 0, 0, 0, 0, 0, 0]","[0, 0, 0, 0, 0, 0, 0, 0, 0, 0, 0, 0, 0, 0, 0, 0, 0, 0, 0, 0]","[0.00018004200683208182, 0.05006758400122635, 0.09872500000346918, 0.14732337500026915, 0.1957292920051259, 0.2446908340061782, 0.2941674590038019, 0.3452268340042792, 0.3950533750030445, 0.444765959000506, 0.495083000001614, 0.5449809590063524, 0.5953954170036013, 0.6455681250008638, 0.695048792003945, 0.7449279590000515, 0.794856709006126, 0.8449328750066343, 0.8950195420038654, 0.9452011250032228]",83.28454245800094,,,,,,,,921191,001,2024-02-05_16h18.39.649,WythoffsHumanExp,2023.1.3,None,
,,,,,,,,,,,,3,0,3,0,,,,,,,,,,,,,,,,,,,,,,,,,,,,,,,,,,,,,,,,,,,,,,,,,,0.028792749995773192,"[0.0, 0.0, 0.0, 0.0, 0.0, 0.0, 0.0, 0.0, 0.0, 0.0, -0.02666666666666667, -0.11333333333333333, -0.2011111111111111, -0.24666666666666667, -0.2611111111111111, -0.26555555555555554, -0.27111111111111114, -0.2777777777777778, -0.2866666666666667, -0.2922222222222222, -0.2922222222222222]","[0.0, 0.0, 0.0, 0.0, 0.0, 0.0, 0.0, 0.0, 0.0, 0.0, 0.024444444444444446, 0.13444444444444445, 0.25666666666666665, 0.3211111111111111, 0.35, 0.37, 0.38222222222222224, 0.3933333333333333, 0.40444444444444444, 0.41, 0.4111111111111111]","[0, 0, 0, 0, 0, 0, 0, 0, 0, 0, 0, 0, 0, 0, 0, 0, 0, 0, 0, 1, 1]","[0, 0, 0, 0, 0, 0, 0, 0, 0, 0, 0, 0, 0, 0, 0, 0, 0, 0, 0, 0, 0]","[0, 0, 0, 0, 0, 0, 0, 0, 0, 0, 0, 0, 0, 0, 0, 0, 0, 0, 0, 0, 0]","[0.00017600000137463212, 0.04968370799906552, 0.0986649580008816, 0.14844404099858366, 0.19810729099845048, 0.24702008299937006, 0.29630183299741475, 0.34482370800105855, 0.3931977079992066, 0.4424556660014787, 0.49174412499996834, 0.5409579999977723, 0.5901333750007325, 0.6390821250024601, 0.6886596659969655, 0.7380145830029505, 0.786909000002197, 0.8363440410030307, 0.8858349160000216, 0.9359159160012496, 0.9851085409973166]",92.45554841600097,,,,,,,,921191,001,2024-02-05_16h18.39.649,WythoffsHumanExp,2023.1.3,None,
,,,,,,,,,,,,4,0,4,0,,,,,,,,,,,,,,,,,,,,,,,,,,,,,,,,,,,,,,,,,,,,,,,,,,0.02961279200098943,"[0.0, 0.0, 0.0, 0.0, 0.0, 0.0, 0.0, 0.0, -0.0044444444444444444, -0.05, -0.10555555555555556, -0.13777777777777778, -0.16333333333333333, -0.17666666666666667, -0.18, -0.18, -0.18, -0.18, -0.19777777777777777, -0.23777777777777778, -0.24888888888888888, -0.25, -0.25, -0.25]","[0.0, 0.0, 0.0, 0.0, 0.0, 0.0, 0.0, 0.0, 0.011111111111111112, 0.09888888888888889, 0.18444444444444444, 0.24, 0.27555555555555555, 0.29, 0.29555555555555557, 0.29555555555555557, 0.29555555555555557, 0.29555555555555557, 0.3233333333333333, 0.39555555555555555, 0.4111111111111111, 0.4122222222222222, 0.4122222222222222, 0.4122222222222222]","[0, 0, 0, 0, 0, 0, 0, 0, 0, 0, 0, 0, 0, 0, 0, 0, 0, 0, 0, 0, 0, 0, 1, 0]","[0, 0, 0, 0, 0, 0, 0, 0, 0, 0, 0, 0, 0, 0, 0, 0, 0, 0, 0, 0, 0, 0, 0, 0]","[0, 0, 0, 0, 0, 0, 0, 0, 0, 0, 0, 0, 0, 0, 0, 0, 0, 0, 0, 0, 0, 0, 0, 0]","[0.00017945899890037253, 0.04937604199949419, 0.0984010419997503, 0.14803933399525704, 0.19742820899409708, 0.24643070899765007, 0.29575304199534, 0.3446777089993702, 0.3943021669983864, 0.44384449999779463, 0.4930003339977702, 0.5422293749943492, 0.5914214169970364, 0.6410813749971567, 0.6895845420003752, 0.7379228339996189, 0.7866993339994224, 0.8356599589969846, 0.8849307919954299, 0.9341138339950703, 0.9831093749962747, 1.0332910419965629, 1.0848386249999749, 1.1338646669973969]",101.94301887500478,,,,,,,,921191,001,2024-02-05_16h18.39.649,WythoffsHumanExp,2023.1.3,None,
,,,,,,,,,,,,5,0,5,0,,,,,,,,,,,,,,,,,,,,,,,,,,,,,,,,,,,,,,,,,,,,,,,,,,0.017000667001411784,"[0.0, 0.0, 0.0, 0.0, 0.0, 0.0, 0.0, 0.0, 0.0, 0.0, -0.04111111111111111, -0.11222222222222222, -0.19444444444444445, -0.24, -0.2511111111111111, -0.2511111111111111, -0.2511111111111111, -0.2511111111111111, -0.2644444444444444, -0.31444444444444447, -0.35333333333333333, -0.3611111111111111, -0.3611111111111111, -0.3611111111111111, -0.3611111111111111, -0.3611111111111111]","[0.0, 0.0, 0.0, 0.0, 0.0, 0.0, 0.0, 0.0, 0.0, 0.0, 0.057777777777777775, 0.15555555555555556, 0.24666666666666667, 0.3233333333333333, 0.3511111111111111, 0.3511111111111111, 0.3511111111111111, 0.3511111111111111, 0.35555555555555557, 0.3811111111111111, 0.4022222222222222, 0.4066666666666667, 0.4077777777777778, 0.4088888888888889, 0.4088888888888889, 0.4088888888888889]","[0, 0, 0, 0, 0, 0, 0, 0, 0, 0, 0, 0, 0, 0, 0, 0, 0, 0, 0, 0, 0, 0, 0, 0, 1, 1]","[0, 0, 0, 0, 0, 0, 0, 0, 0, 0, 0, 0, 0, 0, 0, 0, 0, 0, 0, 0, 0, 0, 0, 0, 0, 0]","[0, 0, 0, 0, 0, 0, 0, 0, 0, 0, 0, 0, 0, 0, 0, 0, 0, 0, 0, 0, 0, 0, 0, 0, 0, 0]","[0.00018008299957728013, 0.049875666001753416, 0.09828308299620403, 0.14707483299571322, 0.19528237499616807, 0.2438525830002618, 0.29213899999740534, 0.34143604100245284, 0.39075216600031126, 0.44159224999748403, 0.4915550829973654, 0.5413948330024141, 0.5913427909981692, 0.6417802079959074, 0.6923278749964084, 0.7414176660022349, 0.7908791660011047, 0.8405180409972672, 0.8906001659997855, 0.9404819999981555, 0.9908672079982352, 1.0411252499980037, 1.0912667079974199, 1.1406798329990124, 1.191365250000672, 1.2411739579983987]",113.86583050000627,,,,,,,,921191,001,2024-02-05_16h18.39.649,WythoffsHumanExp,2023.1.3,None,
,,,,,,,,,,,,6,0,6,0,,,,,,,,,,,,,,,,,,,,,,,,,,,,,,,,,,,,,,,,,,,,,,,,,,0.016937499996856786,"[0.0, 0.0, 0.0, 0.0, 0.0, -0.008888888888888889, -0.11444444444444445, -0.18333333333333332, -0.2311111111111111, -0.2677777777777778, -0.29888888888888887, -0.3233333333333333, -0.3411111111111111, -0.36, -0.37, -0.39111111111111113, -0.41444444444444445, -0.4222222222222222, -0.4222222222222222]","[0.0, 0.0, 0.0, 0.0, 0.0, 0.006666666666666667, 0.09555555555555556, 0.13666666666666666, 0.16, 0.17777777777777778, 0.19333333333333333, 0.21333333333333335, 0.23222222222222222, 0.25555555555555554, 0.27, 0.28555555555555556, 0.30444444444444446, 0.31777777777777777, 0.3188888888888889]","[0, 0, 0, 0, 0, 0, 0, 0, 0, 0, 0, 0, 0, 0, 0, 0, 0, 1, 1]","[0, 0, 0, 0, 0, 0, 0, 0, 0, 0, 0, 0, 0, 0, 0, 0, 0, 0, 0]","[0, 0, 0, 0, 0, 0, 0, 0, 0, 0, 0, 0, 0, 0, 0, 0, 0, 0, 0]","[0.00017987500177696347, 0.05046637500345241, 0.10003250000590924, 0.1500112500070827, 0.19986779200553428, 0.24993937500403263, 0.3001109590040869, 0.35047516700433334, 0.400883000002068, 0.4502605840025353, 0.49998825000511715, 0.5497749590067542, 0.6000217920009163, 0.650225125005818, 0.7001887090009404, 0.7501256670002476, 0.7999129590025404, 0.8502046250068815, 0.899803709005937]",125.41422079100448,,,,,,,,921191,001,2024-02-05_16h18.39.649,WythoffsHumanExp,2023.1.3,None,
,,,,,,,,,,,,7,0,7,0,,,,,,,,,,,,,,,,,,,,,,,,,,,,,,,,,,,,,,,,,,,,,,,,,,0.016970124997897074,"[0.0, 0.0, 0.0, 0.0, 0.0, 0.0, 0.0, 0.0, 0.0, -0.016666666666666666, -0.06555555555555556, -0.13111111111111112, -0.18222222222222223, -0.1922222222222222, -0.1922222222222222, -0.1922222222222222, -0.1922222222222222, -0.21, -0.22777777777777777, -0.23333333333333334, -0.23333333333333334]","[0.0, 0.0, 0.0, 0.0, 0.0, 0.0, 0.0, 0.0, 0.0, 0.02, 0.12222222222222222, 0.29333333333333333, 0.4033333333333333, 0.42, 0.42, 0.42, 0.42, 0.4177777777777778, 0.4122222222222222, 0.41, 0.41]","[0, 0, 0, 0, 0, 0, 0, 0, 0, 0, 0, 0, 0, 0, 0, 0, 0, 0, 0, 1, 1]","[0, 0, 0, 0, 0, 0, 0, 0, 0, 0, 0, 0, 0, 0, 0, 0, 0, 0, 0, 0, 0]","[0, 0, 0, 0, 0, 0, 0, 0, 0, 0, 0, 0, 0, 0, 0, 0, 0, 0, 0, 0, 0]","[0.00018008299957728013, 0.05071829099324532, 0.09945991599670378, 0.14910533299553208, 0.19862887499766657, 0.2474501659962698, 0.2960532079960103, 0.34485549999953946, 0.3937497499937308, 0.442237582996313, 0.4913712499983376, 0.5405164999974659, 0.5893218749988591, 0.6378658329995233, 0.6861811249982566, 0.7344968329998665, 0.7853376249986468, 0.8353294159969664, 0.8855281659998582, 0.9357347909972304, 0.9856138749964884]",136.97557479100215,,,,,,,,921191,001,2024-02-05_16h18.39.649,WythoffsHumanExp,2023.1.3,None,
,,,,,,,,,,,,8,0,8,0,,,,,,,,,,,,,,,,,,,,,,,,,,,,,,,,,,,,,,,,,,,,,,,,,,0.016968957999779377,"[0.0, 0.0, 0.0, 0.0, 0.0, 0.0, 0.0, -0.022222222222222223, -0.07888888888888888, -0.16666666666666666, -0.25, -0.3011111111111111, -0.33111111111111113, -0.3611111111111111, -0.3788888888888889, -0.3844444444444444, -0.3844444444444444, -0.38555555555555554, -0.38555555555555554]","[0.0, 0.0, 0.0, 0.0, 0.0, 0.0, 0.0, 0.03, 0.10444444444444445, 0.21222222222222223, 0.2966666666666667, 0.35, 0.38333333333333336, 0.40555555555555556, 0.41333333333333333, 0.41444444444444445, 0.41333333333333333, 0.41333333333333333, 0.41333333333333333]","[0, 0, 0, 0, 0, 0, 0, 0, 0, 0, 0, 0, 0, 0, 0, 0, 0, 1, 1]","[0, 0, 0, 0, 0, 0, 0, 0, 0, 0, 0, 0, 0, 0, 0, 0, 0, 0, 0]","[0, 0, 0, 0, 0, 0, 0, 0, 0, 0, 0, 0, 0, 0, 0, 0, 0, 0, 0]","[0.00018516699492465705, 0.050995874997170176, 0.10011979199771304, 0.14901487499446375, 0.19848258300044108, 0.24720529199839802, 0.29663262499525445, 0.3463509579960373, 0.39577441699657356, 0.4454228749964386, 0.49460891699709464, 0.5439053750014864, 0.5931172499986133, 0.6424418749957113, 0.6920602079990203, 0.7416352919972269, 0.7909571249983856, 0.8411906670007738, 0.8899646249992657]",148.1861457910054,,,,,,,,921191,001,2024-02-05_16h18.39.649,WythoffsHumanExp,2023.1.3,None,
,,,,,,,,,,,,9,0,9,0,,,,,,,,,,,,,,,,,,,,,,,,,,,,,,,,,,,,,,,,,,,,,,,,,,0.01690904200222576,"[0.0, 0.0, 0.0, 0.0, 0.0, -0.015555555555555555, -0.07888888888888888, -0.15555555555555556, -0.22666666666666666, -0.2777777777777778, -0.31666666666666665, -0.34, -0.3611111111111111, -0.38222222222222224, -0.40444444444444444, -0.4177777777777778, -0.42444444444444446, -0.4255555555555556, -0.4255555555555556]","[0.0, 0.0, 0.0, 0.0, 0.0, 0.01, 0.057777777777777775, 0.1322222222222222, 0.19666666666666666, 0.23555555555555555, 0.2644444444444444, 0.2777777777777778, 0.28555555555555556, 0.29555555555555557, 0.32, 0.34, 0.35333333333333333, 0.35777777777777775, 0.35777777777777775]","[0, 0, 0, 0, 0, 0, 0, 0, 0, 0, 0, 0, 0, 0, 0, 0, 0, 1, 1]","[0, 0, 0, 0, 0, 0, 0, 0, 0, 0, 0, 0, 0, 0, 0, 0, 0, 0, 0]","[0, 0, 0, 0, 0, 0, 0, 0, 0, 0, 0, 0, 0, 0, 0, 0, 0, 0, 0]","[0.000185500000952743, 0.050251332999323495, 0.09918712500075344, 0.1480368750053458, 0.19750420800119173, 0.24696391700126696, 0.29665841700625606, 0.3460309580041212, 0.3956406249999418, 0.44514291700033937, 0.4946174580036313, 0.5443030829992495, 0.5938357920022099, 0.6433940000060829, 0.6932080830010818, 0.7426340000019991, 0.7926451250023092, 0.8430824579991167, 0.893115333004971]",160.7897637500064,,,,,,,,921191,001,2024-02-05_16h18.39.649,WythoffsHumanExp,2023.1.3,None,
,,,,,,,,,,,,10,0,10,0,,,,,,,,,,,,,,,,,,,,,,,,,,,,,,,,,,,,,,,,,,,,,,,,,,0.029392124997684732,"[0.0, 0.0, 0.0, 0.0, 0.0, 0.0, 0.0, 0.0, 0.0, 0.0, 0.0, 0.0, 0.0, -0.023333333333333334, -0.12, -0.20555555555555555, -0.25666666666666665, -0.2811111111111111, -0.28888888888888886, -0.2922222222222222, -0.29444444444444445, -0.29777777777777775, -0.29888888888888887, -0.29888888888888887, -0.29777777777777775, -0.2966666666666667]","[0.0, 0.0, 0.0, 0.0, 0.0, 0.0, 0.0, 0.0, 0.0, 0.0, 0.0, 0.0, 0.0, 0.015555555555555555, 0.09888888888888889, 0.19111111111111112, 0.2544444444444444, 0.2911111111111111, 0.31777777777777777, 0.3411111111111111, 0.35888888888888887, 0.37, 0.38, 0.3888888888888889, 0.3977777777777778, 0.4]","[0, 0, 0, 0, 0, 0, 0, 0, 0, 0, 0, 0, 0, 0, 0, 0, 0, 0, 0, 0, 0, 0, 0, 0, 0, 1]","[0, 0, 0, 0, 0, 0, 0, 0, 0, 0, 0, 0, 0, 0, 0, 0, 0, 0, 0, 0, 0, 0, 0, 0, 0, 0]","[0, 0, 0, 0, 0, 0, 0, 0, 0, 0, 0, 0, 0, 0, 0, 0, 0, 0, 0, 0, 0, 0, 0, 0, 0, 0]","[0.00019049999536946416, 0.04923008300102083, 0.0981674579961691, 0.1473296659969492, 0.19685420799942221, 0.24642904099891894, 0.29603387499810196, 0.3446622909978032, 0.39366766600142, 0.4424272909964202, 0.4914691660014796, 0.5403046249994077, 0.5897672079954646, 0.638965707999887, 0.6882294159950106, 0.7372734579985263, 0.7868698329984909, 0.8359869999985676, 0.8855084999959217, 0.935182082997926, 0.9847200410004007, 1.0345373329982976, 1.084385290996579, 1.1336757909957669, 1.1829710409947438, 1.2329437500011409]",170.15828470800625,,,,,,,,921191,001,2024-02-05_16h18.39.649,WythoffsHumanExp,2023.1.3,None,
,,,,,,,,,,,,11,0,11,0,,,,,,,,,,,,,,,,,,,,,,,,,,,,,,,,,,,,,,,,,,,,,,,,,,0.030424833996221423,"[0.0, 0.0, 0.0, 0.0, 0.0, 0.0, 0.0, 0.0, 0.0, 0.0, 0.0, 0.0, 0.0, 0.0, 0.0, 0.0, 0.0, 0.0, -0.0044444444444444444, -0.028888888888888888, -0.1288888888888889, -0.23, -0.31555555555555553, -0.35777777777777775, -0.37666666666666665, -0.3844444444444444, -0.3888888888888889, -0.39222222222222225, -0.39222222222222225, -0.39, -0.38666666666666666, -0.37, -0.35777777777777775, -0.3566666666666667]","[0.0, 0.0, 0.0, 0.0, 0.0, 0.0, 0.0, 0.0, 0.0, 0.0, 0.0, 0.0, 0.0, 0.0, 0.0, 0.0, 0.0, 0.0, 0.005555555555555556, 0.025555555555555557, 0.12666666666666668, 0.23666666666666666, 0.33, 0.37666666666666665, 0.4011111111111111, 0.41333333333333333, 0.42333333333333334, 0.43222222222222223, 0.43222222222222223, 0.43, 0.4255555555555556, 0.4122222222222222, 0.40555555555555556, 0.40555555555555556]","[0, 0, 0, 0, 0, 0, 0, 0, 0, 0, 0, 0, 0, 0, 0, 0, 0, 0, 0, 0, 0, 0, 0, 0, 0, 0, 0, 0, 0, 0, 0, 0, 0, 1]","[0, 0, 0, 0, 0, 0, 0, 0, 0, 0, 0, 0, 0, 0, 0, 0, 0, 0, 0, 0, 0, 0, 0, 0, 0, 0, 0, 0, 0, 0, 0, 0, 0, 0]","[0, 0, 0, 0, 0, 0, 0, 0, 0, 0, 0, 0, 0, 0, 0, 0, 0, 0, 0, 0, 0, 0, 0, 0, 0, 0, 0, 0, 0, 0, 0, 0, 0, 0]","[0.00019012499978998676, 0.04932087500492344, 0.09787841700017452, 0.14692754200223135, 0.19583933299873024, 0.24448345800192328, 0.293095250002807, 0.3421086669986835, 0.3912383749993751, 0.4400942499996745, 0.4888041250014794, 0.537295667003491, 0.5857107080009882, 0.6345102920022327, 0.6829798750040936, 0.7316382920034812, 0.7809884170055739, 0.830947542002832, 0.8811538750014734, 0.9313200830001733, 0.9817887500030338, 1.0317537920054747, 1.081622707999486, 1.1314401250056108, 1.1815618330001598, 1.2319659999993746, 1.2826256670014118, 1.3323271250046673, 1.382022000005236, 1.4321465000030003, 1.4826817080029286, 1.532890167000005, 1.5833950000014738, 1.6331052500027]",180.65593362500658,,,,,,,,921191,001,2024-02-05_16h18.39.649,WythoffsHumanExp,2023.1.3,None,
,,,,,,,,,,,,12,0,12,0,,,,,,,,,,,,,,,,,,,,,,,,,,,,,,,,,,,,,,,,,,,,,,,,,,0.016933833998336922,"[0.0, 0.0, 0.0, 0.0, 0.0, 0.0, 0.0, 0.0, 0.0, 0.0, 0.0, -0.05444444444444444, -0.1388888888888889, -0.24333333333333335, -0.31444444444444447, -0.37, -0.4033333333333333, -0.4122222222222222, -0.41444444444444445, -0.41444444444444445, -0.41333333333333333, -0.4111111111111111, -0.41, -0.41]","[0.0, 0.0, 0.0, 0.0, 0.0, 0.0, 0.0, 0.0, 0.0, 0.0, 0.0, 0.006666666666666667, 0.035555555555555556, 0.08555555555555555, 0.1288888888888889, 0.15555555555555556, 0.1622222222222222, 0.1622222222222222, 0.16, 0.15888888888888889, 0.14777777777777779, 0.13111111111111112, 0.12555555555555556, 0.12555555555555556]","[0, 0, 0, 0, 0, 0, 0, 0, 0, 0, 0, 0, 0, 0, 0, 0, 0, 0, 0, 0, 0, 0, 1, 1]","[0, 0, 0, 0, 0, 0, 0, 0, 0, 0, 0, 0, 0, 0, 0, 0, 0, 0, 0, 0, 0, 0, 0, 0]","[0, 0, 0, 0, 0, 0, 0, 0, 0, 0, 0, 0, 0, 0, 0, 0, 0, 0, 0, 0, 0, 0, 0, 0]","[0.00019483300275169313, 0.04995670799689833, 0.09816950000094948, 0.146569874996203, 0.1948066659970209, 0.2437255830009235, 0.2927017909969436, 0.3418369999999413, 0.39104454100015573, 0.43990016599855153, 0.48922275000222726, 0.5381532499959576, 0.5875610410002992, 0.637012582999887, 0.6870082910027122, 0.7362586660019588, 0.7853439579994301, 0.8341649159992812, 0.8832511250002426, 0.9325465829970199, 0.9816698329959763, 1.031194625000353, 1.0806925829965621, 1.1300015000015264]",192.94681766600115,,,,,,,,921191,001,2024-02-05_16h18.39.649,WythoffsHumanExp,2023.1.3,None,
,,,,,,,,,,,,13,0,13,0,,,,,,,,,,,,,,,,,,,,,,,,,,,,,,,,,,,,,,,,,,,,,,,,,,0.029707084002438933,"[0.0, 0.0, 0.0, 0.0, 0.0, 0.0, 0.0, 0.0, -0.013333333333333334, -0.08444444444444445, -0.20555555555555555, -0.31444444444444447, -0.3611111111111111, -0.38555555555555554, -0.3977777777777778, -0.4011111111111111, -0.4022222222222222, -0.4066666666666667, -0.4066666666666667]","[0.0, 0.0, 0.0, 0.0, 0.0, 0.0, 0.0, 0.0, 0.005555555555555556, 0.058888888888888886, 0.16333333333333333, 0.2577777777777778, 0.30333333333333334, 0.3233333333333333, 0.3288888888888889, 0.33, 0.33444444444444443, 0.3422222222222222, 0.34444444444444444]","[0, 0, 0, 0, 0, 0, 0, 0, 0, 0, 0, 0, 0, 0, 0, 0, 0, 0, 1]","[0, 0, 0, 0, 0, 0, 0, 0, 0, 0, 0, 0, 0, 0, 0, 0, 0, 0, 0]","[0, 0, 0, 0, 0, 0, 0, 0, 0, 0, 0, 0, 0, 0, 0, 0, 0, 0, 0]","[0.0001916250039357692, 0.04943300000013551, 0.09834854200016707, 0.14729233300022315, 0.19634837500052527, 0.2447317500045756, 0.29344475000107195, 0.3428896250043181, 0.3928215830019326, 0.4419627919996856, 0.4911072500035516, 0.5404137500008801, 0.5903422080009477, 0.6394432920060353, 0.6892744580036378, 0.7385218330018688, 0.7881255419997615, 0.8373036670018337, 0.886635082999419]",202.0922479159999,,,,,,,,921191,001,2024-02-05_16h18.39.649,WythoffsHumanExp,2023.1.3,None,
,,,,,,,,,,,,14,0,14,0,,,,,,,,,,,,,,,,,,,,,,,,,,,,,,,,,,,,,,,,,,,,,,,,,,0.01693666700157337,"[0.0, 0.0, 0.0, 0.0, 0.0, 0.0, 0.0, 0.0, 0.0, 0.0, 0.0, -0.0011111111111111111, -0.035555555555555556, -0.13444444444444445, -0.21444444444444444, -0.26, -0.2733333333333333, -0.27555555555555555, -0.27666666666666667, -0.27666666666666667, -0.27111111111111114, -0.24555555555555555, -0.23222222222222222, -0.2311111111111111, -0.2311111111111111]","[0.0, 0.0, 0.0, 0.0, 0.0, 0.0, 0.0, 0.0, 0.0, 0.0, 0.0, 0.0, 0.03111111111111111, 0.16666666666666666, 0.3055555555555556, 0.3933333333333333, 0.4288888888888889, 0.4411111111111111, 0.4477777777777778, 0.45, 0.4477777777777778, 0.4266666666666667, 0.4122222222222222, 0.4077777777777778, 0.4077777777777778]","[0, 0, 0, 0, 0, 0, 0, 0, 0, 0, 0, 0, 0, 0, 0, 0, 0, 0, 0, 0, 0, 0, 0, 1, 0]","[0, 0, 0, 0, 0, 0, 0, 0, 0, 0, 0, 0, 0, 0, 0, 0, 0, 0, 0, 0, 0, 0, 0, 0, 0]","[0, 0, 0, 0, 0, 0, 0, 0, 0, 0, 0, 0, 0, 0, 0, 0, 0, 0, 0, 0, 0, 0, 0, 0, 0]","[0.0001956670021172613, 0.05048058300599223, 0.0994273329997668, 0.14868441699945834, 0.1980630830003065, 0.2475222080029198, 0.2970394580042921, 0.34626154199941084, 0.3949430830034544, 0.44333770800585626, 0.492683708005643, 0.5418202500004554, 0.5910927080039983, 0.6403650420033955, 0.6893871249994845, 0.73859129199991, 0.7880599580021226, 0.8378308750034194, 0.8872057500047958, 0.9361433750018477, 0.9853912500038859, 1.0344322500022827, 1.0839787080039969, 1.1342997500032652, 1.18461400000524]",214.1408909580059,,,,,,,,921191,001,2024-02-05_16h18.39.649,WythoffsHumanExp,2023.1.3,None,
,,,,,,,,,,,,15,0,15,0,,,,,,,,,,,,,,,,,,,,,,,,,,,,,,,,,,,,,,,,,,,,,,,,,,0.01702754099824233,"[0.0, 0.0, 0.0, 0.0, 0.0, 0.0, 0.0, 0.0, 0.0, 0.0, 0.0, 0.0, 0.0, -0.01, -0.11888888888888889, -0.25, -0.3277777777777778, -0.3466666666666667, -0.36666666666666664, -0.3877777777777778, -0.39222222222222225, -0.39666666666666667, -0.4033333333333333, -0.4088888888888889, -0.4111111111111111, -0.4111111111111111]","[0.0, 0.0, 0.0, 0.0, 0.0, 0.0, 0.0, 0.0, 0.0, 0.0, 0.0, 0.0, 0.0, 0.0044444444444444444, 0.10777777777777778, 0.27666666666666667, 0.3611111111111111, 0.37777777777777777, 0.39111111111111113, 0.4, 0.4, 0.39, 0.37666666666666665, 0.36666666666666664, 0.36333333333333334, 0.3622222222222222]","[0, 0, 0, 0, 0, 0, 0, 0, 0, 0, 0, 0, 0, 0, 0, 0, 0, 0, 0, 0, 0, 0, 0, 0, 1, 1]","[0, 0, 0, 0, 0, 0, 0, 0, 0, 0, 0, 0, 0, 0, 0, 0, 0, 0, 0, 0, 0, 0, 0, 0, 0, 0]","[0, 0, 0, 0, 0, 0, 0, 0, 0, 0, 0, 0, 0, 0, 0, 0, 0, 0, 0, 0, 0, 0, 0, 0, 0, 0]","[0.00019679200340760872, 0.05093062500236556, 0.09975629200198455, 0.14825162500346778, 0.19684575000428595, 0.24540483300370397, 0.2935260419981205, 0.3418006670035538, 0.3902880419991561, 0.43903670799772954, 0.4878000000026077, 0.5372326670039911, 0.5868257920010365, 0.6372659580010804, 0.6869585419990472, 0.7366389169983449, 0.7865964579978026, 0.8364847499979078, 0.8872992079996038, 0.9370471250003902, 0.987233332998585, 1.0369969169987598, 1.0867918330040993, 1.1373763750016224, 1.187343666999368, 1.2368471669979044]",226.23756962500192,,,,,,,,921191,001,2024-02-05_16h18.39.649,WythoffsHumanExp,2023.1.3,None,
,,,,,,,,,,,,16,0,16,0,,,,,,,,,,,,,,,,,,,,,,,,,,,,,,,,,,,,,,,,,,,,,,,,,,0.017072791000828147,"[0.0, 0.0, 0.0, 0.0, 0.0, 0.0, 0.0, 0.0, 0.0, 0.0, 0.0, 0.0, -0.008888888888888889, -0.06, -0.22555555555555556, -0.3388888888888889, -0.37, -0.3844444444444444, -0.39, -0.39444444444444443, -0.3977777777777778, -0.3988888888888889, -0.3988888888888889]","[0.0, 0.0, 0.0, 0.0, 0.0, 0.0, 0.0, 0.0, 0.0, 0.0, 0.0, 0.0, 0.0033333333333333335, 0.03777777777777778, 0.1811111111111111, 0.29333333333333333, 0.3322222222222222, 0.35444444444444445, 0.3688888888888889, 0.38555555555555554, 0.39666666666666667, 0.4, 0.4]","[0, 0, 0, 0, 0, 0, 0, 0, 0, 0, 0, 0, 0, 0, 0, 0, 0, 0, 0, 0, 0, 1, 1]","[0, 0, 0, 0, 0, 0, 0, 0, 0, 0, 0, 0, 0, 0, 0, 0, 0, 0, 0, 0, 0, 0, 0]","[0, 0, 0, 0, 0, 0, 0, 0, 0, 0, 0, 0, 0, 0, 0, 0, 0, 0, 0, 0, 0, 0, 0]","[0.00019545899704098701, 0.04998925000109011, 0.09882695900159888, 0.14699466699676123, 0.19530995900277048, 0.2437666670011822, 0.2930897920014104, 0.3422485420014709, 0.3918430420017103, 0.4424326669977745, 0.49188999999751104, 0.5420817920021364, 0.5920663340002648, 0.6422294590011006, 0.6929903749987716, 0.7431709169977694, 0.7928192920007859, 0.8427017499998328, 0.8924577090001549, 0.9425297920024605, 0.9928982499986887, 1.0433381670009112, 1.092778250000265]",239.34567108299962,,,,,,,,921191,001,2024-02-05_16h18.39.649,WythoffsHumanExp,2023.1.3,None,
,,,,,,,,,,,,17,0,17,0,,,,,,,,,,,,,,,,,,,,,,,,,,,,,,,,,,,,,,,,,,,,,,,,,,0.03015137499460252,"[0.0, 0.0, 0.0, 0.0, 0.0, 0.0, 0.0, 0.0, 0.0, 0.0, 0.0, 0.0, 0.0, -0.015555555555555555, -0.13111111111111112, -0.24555555555555555, -0.31555555555555553, -0.34555555555555556, -0.35444444444444445, -0.35444444444444445, -0.35333333333333333, -0.35333333333333333]","[0.0, 0.0, 0.0, 0.0, 0.0, 0.0, 0.0, 0.0, 0.0, 0.0, 0.0, 0.0, 0.0, 0.012222222222222223, 0.11666666666666667, 0.24333333333333335, 0.33444444444444443, 0.3811111111111111, 0.39444444444444443, 0.39444444444444443, 0.39555555555555555, 0.3977777777777778]","[0, 0, 0, 0, 0, 0, 0, 0, 0, 0, 0, 0, 0, 0, 0, 0, 0, 0, 0, 0, 0, 1]","[0, 0, 0, 0, 0, 0, 0, 0, 0, 0, 0, 0, 0, 0, 0, 0, 0, 0, 0, 0, 0, 0]","[0, 0, 0, 0, 0, 0, 0, 0, 0, 0, 0, 0, 0, 0, 0, 0, 0, 0, 0, 0, 0, 0]","[0.00019991699809907004, 0.04952295799739659, 0.09781637499690987, 0.1464469580023433, 0.19586695799807785, 0.2452073329986888, 0.29469862500263844, 0.3436771249980666, 0.3923877499983064, 0.44075675000203773, 0.48934970799746225, 0.5381557500004419, 0.587150291998114, 0.6362481250034762, 0.6859627919984632, 0.73510399999941, 0.7845507079982781, 0.8339427500031888, 0.883437791999313, 0.9328543329975219, 0.9823283329969854, 1.0325453330005985]",248.3763574580007,,,,,,,,921191,001,2024-02-05_16h18.39.649,WythoffsHumanExp,2023.1.3,None,
,,,,,,,,,,,,18,0,18,0,,,,,,,,,,,,,,,,,,,,,,,,,,,,,,,,,,,,,,,,,,,,,,,,,,0.046754082999541424,"[0.0, 0.0, 0.0, 0.0, 0.0, 0.0, 0.0, 0.0, 0.0, 0.0, -0.0044444444444444444, -0.09888888888888889, -0.22111111111111112, -0.36333333333333334, -0.4066666666666667, -0.4222222222222222, -0.4255555555555556, -0.4255555555555556, -0.4266666666666667, -0.42444444444444446, -0.4166666666666667, -0.4122222222222222, -0.4111111111111111]","[0.0, 0.0, 0.0, 0.0, 0.0, 0.0, 0.0, 0.0, 0.0, 0.0, 0.0011111111111111111, 0.06777777777777778, 0.16111111111111112, 0.27555555555555555, 0.31333333333333335, 0.32555555555555554, 0.3277777777777778, 0.3277777777777778, 0.3244444444444444, 0.3211111111111111, 0.31, 0.3022222222222222, 0.3011111111111111]","[0, 0, 0, 0, 0, 0, 0, 0, 0, 0, 0, 0, 0, 0, 0, 0, 0, 0, 0, 0, 0, 0, 1]","[0, 0, 0, 0, 0, 0, 0, 0, 0, 0, 0, 0, 0, 0, 0, 0, 0, 0, 0, 0, 0, 0, 0]","[0, 0, 0, 0, 0, 0, 0, 0, 0, 0, 0, 0, 0, 0, 0, 0, 0, 0, 0, 0, 0, 0, 0]","[0.00020333300199126825, 0.04947195800195914, 0.09887295799853746, 0.14785179099999368, 0.197136374998081, 0.2461838329982129, 0.29487254100240534, 0.34345441599725746, 0.3922056250012247, 0.4417955000026268, 0.4917474160029087, 0.5408994999961578, 0.5900370829986059, 0.6394699579977896, 0.6885403749984107, 0.7379350830015028, 0.7869426249962999, 0.8364454159964225, 0.8852431249979418, 0.9344859999982873, 0.9836134579963982, 1.0334191660003853, 1.0835440829978324]",257.89052525000443,,,,,,,,921191,001,2024-02-05_16h18.39.649,WythoffsHumanExp,2023.1.3,None,
,,,,,,,,,,,,19,0,19,0,,,,,,,,,,,,,,,,,,,,,,,,,,,,,,,,,,,,,,,,,,,,,,,,,,0.016931292004301213,"[0.0, 0.0, 0.0, 0.0, 0.0, 0.0, 0.0, 0.0, -0.028888888888888888, -0.13666666666666666, -0.23333333333333334, -0.28444444444444444, -0.30666666666666664, -0.3188888888888889, -0.3244444444444444, -0.32666666666666666, -0.33111111111111113, -0.33666666666666667, -0.3411111111111111, -0.3422222222222222]","[0.0, 0.0, 0.0, 0.0, 0.0, 0.0, 0.0, 0.0, 0.025555555555555557, 0.14333333333333334, 0.24444444444444444, 0.3055555555555556, 0.34, 0.36333333333333334, 0.37222222222222223, 0.37666666666666665, 0.38333333333333336, 0.39111111111111113, 0.3988888888888889, 0.4]","[0, 0, 0, 0, 0, 0, 0, 0, 0, 0, 0, 0, 0, 0, 0, 0, 0, 0, 1, 1]","[0, 0, 0, 0, 0, 0, 0, 0, 0, 0, 0, 0, 0, 0, 0, 0, 0, 0, 0, 0]","[0, 0, 0, 0, 0, 0, 0, 0, 0, 0, 0, 0, 0, 0, 0, 0, 0, 0, 0, 0]","[0.00020437499915715307, 0.05014570899948012, 0.0987112500006333, 0.14763987499463838, 0.19634237499849405, 0.24506045899761375, 0.2937244999993709, 0.3429363339964766, 0.3928724590005004, 0.4425464589949115, 0.49236979199486086, 0.5411816249979893, 0.5912154170000576, 0.6407936670002528, 0.6907467919954797, 0.7409912090006401, 0.7912878339993767, 0.8408798339951318, 0.8914361249990179, 0.9409715840010904]",269.5543563330066,,,,,,,,921191,001,2024-02-05_16h18.39.649,WythoffsHumanExp,2023.1.3,None,
,,,,,,,,,,,,20,0,20,0,,,,,,,,,,,,,,,,,,,,,,,,,,,,,,,,,,,,,,,,,,,,,,,,,,0.029928875002951827,"[0.0, 0.0, 0.0, 0.0, 0.0, 0.0, 0.0, 0.0, -0.017777777777777778, -0.10333333333333333, -0.2477777777777778, -0.3188888888888889, -0.3388888888888889, -0.3433333333333333, -0.3566666666666667, -0.37666666666666665, -0.3888888888888889, -0.39444444444444443, -0.3977777777777778, -0.3977777777777778]","[0.0, 0.0, 0.0, 0.0, 0.0, 0.0, 0.0, 0.0, 0.008888888888888889, 0.07222222222222222, 0.17777777777777778, 0.22111111111111112, 0.23444444444444446, 0.24, 0.2511111111111111, 0.26222222222222225, 0.2688888888888889, 0.27555555555555555, 0.2811111111111111, 0.2811111111111111]","[0, 0, 0, 0, 0, 0, 0, 0, 0, 0, 0, 0, 0, 0, 0, 0, 0, 0, 1, 1]","[0, 0, 0, 0, 0, 0, 0, 0, 0, 0, 0, 0, 0, 0, 0, 0, 0, 0, 0, 0]","[0, 0, 0, 0, 0, 0, 0, 0, 0, 0, 0, 0, 0, 0, 0, 0, 0, 0, 0, 0]","[0.00020554199727484956, 0.04944920900015859, 0.09830333400168456, 0.1472437499978696, 0.19639941700006602, 0.2456692919950001, 0.29500916699907975, 0.3443738339992706, 0.3948405420014751, 0.44469258400204126, 0.4954932499967981, 0.5453399589969194, 0.5953609169955598, 0.645224583997333, 0.6952157089981483, 0.7450257500022417, 0.7945509170021978, 0.8437924589961767, 0.8942258339957334, 0.9434717499971157]",278.8417686660032,,,,,,,,921191,001,2024-02-05_16h18.39.649,WythoffsHumanExp,2023.1.3,None,
,,,,,,,,,,,,21,0,21,0,,,,,,,,,,,,,,,,,,,,,,,,,,,,,,,,,,,,,,,,,,,,,,,,,,0.04865862499718787,"[0.0, 0.0, 0.0, 0.0, 0.0, 0.0, 0.0, 0.0, 0.0, -0.006666666666666667, -0.08222222222222222, -0.17666666666666667, -0.2644444444444444, -0.29888888888888887, -0.3111111111111111, -0.31222222222222223, -0.3111111111111111, -0.3088888888888889, -0.3088888888888889]","[0.0, 0.0, 0.0, 0.0, 0.0, 0.0, 0.0, 0.0, 0.0, 0.0033333333333333335, 0.07666666666666666, 0.20666666666666667, 0.3411111111111111, 0.39, 0.4022222222222222, 0.40444444444444444, 0.40444444444444444, 0.4088888888888889, 0.41]","[0, 0, 0, 0, 0, 0, 0, 0, 0, 0, 0, 0, 0, 0, 0, 0, 0, 1, 1]","[0, 0, 0, 0, 0, 0, 0, 0, 0, 0, 0, 0, 0, 0, 0, 0, 0, 0, 0]","[0, 0, 0, 0, 0, 0, 0, 0, 0, 0, 0, 0, 0, 0, 0, 0, 0, 0, 0]","[0.00020362500072224066, 0.049819125000794884, 0.09820333300012862, 0.1464247920011985, 0.19537962500180583, 0.24445612500130665, 0.293598167001619, 0.3425951250028447, 0.39171279199945275, 0.4414096249965951, 0.49131887499970617, 0.5403867919958429, 0.5891888749974896, 0.6382302920028451, 0.6871519170017564, 0.7362742499972228, 0.7851253330009058, 0.8349107499961974, 0.8838798329961719]",288.0942947500007,,,,,,,,921191,001,2024-02-05_16h18.39.649,WythoffsHumanExp,2023.1.3,None,
,,,,,,,,,,,,22,0,22,0,,,,,,,,,,,,,,,,,,,,,,,,,,,,,,,,,,,,,,,,,,,,,,,,,,0.017003250002744608,"[0.0, 0.0, 0.0, 0.0, 0.0, 0.0, -0.013333333333333334, -0.14888888888888888, -0.29888888888888887, -0.3988888888888889, -0.4444444444444444, -0.4622222222222222, -0.46444444444444444, -0.46444444444444444, -0.4622222222222222, -0.4533333333333333, -0.4288888888888889, -0.4166666666666667, -0.41555555555555557, -0.41555555555555557]","[0.0, 0.0, 0.0, 0.0, 0.0, 0.0, 0.0044444444444444444, 0.11777777777777777, 0.27, 0.3611111111111111, 0.3933333333333333, 0.4022222222222222, 0.4033333333333333, 0.4033333333333333, 0.4033333333333333, 0.39444444444444443, 0.3711111111111111, 0.3611111111111111, 0.3611111111111111, 0.3611111111111111]","[0, 0, 0, 0, 0, 0, 0, 0, 0, 0, 0, 0, 0, 0, 0, 0, 0, 0, 1, 0]","[0, 0, 0, 0, 0, 0, 0, 0, 0, 0, 0, 0, 0, 0, 0, 0, 0, 0, 0, 0]","[0, 0, 0, 0, 0, 0, 0, 0, 0, 0, 0, 0, 0, 0, 0, 0, 0, 0, 0, 0]","[0.00019958300254074857, 0.049820500003988855, 0.09845779100578511, 0.1473567909997655, 0.1956345830039936, 0.2451277080035652, 0.29565179100609384, 0.34564550000504823, 0.39551879100326914, 0.4457810000021709, 0.495798708005168, 0.5453796660003718, 0.5951255830004811, 0.6447117499992601, 0.6945434160006698, 0.7445752080020611, 0.7943125410020002, 0.8439610410059686, 0.8940910410019569, 0.9442943329995614]",299.8080952080054,,,,,,,,921191,001,2024-02-05_16h18.39.649,WythoffsHumanExp,2023.1.3,None,
,,,,,,,,,,,,23,0,23,0,,,,,,,,,,,,,,,,,,,,,,,,,,,,,,,,,,,,,,,,,,,,,,,,,,0.0171074169993517,"[0.0, 0.0, 0.0, 0.0, 0.0, 0.0, -0.024444444444444446, -0.09111111111111111, -0.21333333333333335, -0.29888888888888887, -0.33111111111111113, -0.3411111111111111, -0.3488888888888889, -0.35444444444444445, -0.36333333333333334, -0.37666666666666665, -0.38555555555555554, -0.38555555555555554]","[0.0, 0.0, 0.0, 0.0, 0.0, 0.0, 0.022222222222222223, 0.12555555555555556, 0.27111111111111114, 0.3322222222222222, 0.35444444444444445, 0.37, 0.3811111111111111, 0.38555555555555554, 0.3888888888888889, 0.39444444444444443, 0.3988888888888889, 0.4]","[0, 0, 0, 0, 0, 0, 0, 0, 0, 0, 0, 0, 0, 0, 0, 0, 1, 1]","[0, 0, 0, 0, 0, 0, 0, 0, 0, 0, 0, 0, 0, 0, 0, 0, 0, 0]","[0, 0, 0, 0, 0, 0, 0, 0, 0, 0, 0, 0, 0, 0, 0, 0, 0, 0]","[0.00020266600040486082, 0.05066645799524849, 0.0996421250019921, 0.14904895799554652, 0.1987654999975348, 0.2490613330010092, 0.2988257499964675, 0.34902904099726584, 0.3990574999988894, 0.4490554579970194, 0.4992370409963769, 0.5491557080022176, 0.5987931659983587, 0.6486515409997082, 0.6990962909985683, 0.7492434160012635, 0.8002570829994511, 0.850585250002041]",313.63836429100047,,,,,,,,921191,001,2024-02-05_16h18.39.649,WythoffsHumanExp,2023.1.3,None,
,,,,,,,,,,,,24,0,24,0,,,,,,,,,,,,,,,,,,,,,,,,,,,,,,,,,,,,,,,,,,,,,,,,,,0.02913829200406326,"[0.0, 0.0, 0.0, 0.0, 0.0, 0.0, 0.0, 0.0, 0.0, 0.0, 0.0, 0.0, 0.0, -0.013333333333333334, -0.09, -0.22333333333333333, -0.31555555555555553, -0.3466666666666667, -0.36444444444444446, -0.38222222222222224, -0.3977777777777778, -0.4033333333333333, -0.4033333333333333]","[0.0, 0.0, 0.0, 0.0, 0.0, 0.0, 0.0, 0.0, 0.0, 0.0, 0.0, 0.0, 0.0, 0.006666666666666667, 0.06111111111111111, 0.16555555555555557, 0.23666666666666666, 0.26222222222222225, 0.2733333333333333, 0.2811111111111111, 0.2877777777777778, 0.29333333333333333, 0.29555555555555557]","[0, 0, 0, 0, 0, 0, 0, 0, 0, 0, 0, 0, 0, 0, 0, 0, 0, 0, 0, 0, 0, 0, 1]","[0, 0, 0, 0, 0, 0, 0, 0, 0, 0, 0, 0, 0, 0, 0, 0, 0, 0, 0, 0, 0, 0, 0]","[0, 0, 0, 0, 0, 0, 0, 0, 0, 0, 0, 0, 0, 0, 0, 0, 0, 0, 0, 0, 0, 0, 0]","[0.00021279099746607244, 0.04940070799784735, 0.09826404100022046, 0.14806987500196556, 0.1973201250002603, 0.24655641600111267, 0.2956012080030632, 0.34420879100071033, 0.39305958300246857, 0.44191783299902454, 0.49069574999884935, 0.5392767079974874, 0.5880709580014809, 0.638087874998746, 0.6881754999994882, 0.7374102910034708, 0.7876853330017184, 0.8373491250022198, 0.8868699160011602, 0.9362303329980932, 0.9857196250013658, 1.035117708001053, 1.0852690410029027]",322.96906791600486,,,,,,,,921191,001,2024-02-05_16h18.39.649,WythoffsHumanExp,2023.1.3,None,
,,,,,,,,,,,,25,0,25,0,,,,,,,,,,,,,,,,,,,,,,,,,,,,,,,,,,,,,,,,,,,,,,,,,,0.01704641599644674,"[0.0, 0.0, 0.0, 0.0, 0.0, 0.0, 0.0, 0.0, 0.0, -0.0011111111111111111, -0.03111111111111111, -0.17666666666666667, -0.29444444444444445, -0.36333333333333334, -0.38, -0.38555555555555554, -0.3877777777777778, -0.3877777777777778, -0.3877777777777778, -0.37555555555555553, -0.36333333333333334, -0.3611111111111111]","[0.0, 0.0, 0.0, 0.0, 0.0, 0.0, 0.0, 0.0, 0.0, 0.0, 0.02666666666666667, 0.17555555555555555, 0.29555555555555557, 0.3511111111111111, 0.3622222222222222, 0.37222222222222223, 0.3844444444444444, 0.4, 0.4066666666666667, 0.4066666666666667, 0.4066666666666667, 0.4066666666666667]","[0, 0, 0, 0, 0, 0, 0, 0, 0, 0, 0, 0, 0, 0, 0, 0, 0, 0, 0, 0, 1, 1]","[0, 0, 0, 0, 0, 0, 0, 0, 0, 0, 0, 0, 0, 0, 0, 0, 0, 0, 0, 0, 0, 0]","[0, 0, 0, 0, 0, 0, 0, 0, 0, 0, 0, 0, 0, 0, 0, 0, 0, 0, 0, 0, 0, 0]","[0.00020620799477910623, 0.05145183300192002, 0.09980399999767542, 0.1489796249952633, 0.19822425000165822, 0.24713337499997579, 0.2958955829963088, 0.3445200409987592, 0.395067833000212, 0.4471372909974889, 0.499971416000335, 0.5527839159985888, 0.6047530829964671, 0.6564117499947315, 0.708026415995846, 0.7578337500017369, 0.8076493330008816, 0.857134790996497, 0.9067687499991735, 0.9561841659960919, 1.0067502909951145, 1.0558960829948774]",334.76943087499967,,,,,,,,921191,001,2024-02-05_16h18.39.649,WythoffsHumanExp,2023.1.3,None,
,,,,,,,,,,,,26,0,26,0,,,,,,,,,,,,,,,,,,,,,,,,,,,,,,,,,,,,,,,,,,,,,,,,,,0.02991904199734563,"[0.0, 0.0, 0.0, 0.0, 0.0, 0.0, 0.0, 0.0, 0.0, 0.0, -0.0033333333333333335, -0.07333333333333333, -0.2222222222222222, -0.30666666666666664, -0.33, -0.33666666666666667, -0.3411111111111111, -0.3433333333333333, -0.34444444444444444, -0.34444444444444444]","[0.0, 0.0, 0.0, 0.0, 0.0, 0.0, 0.0, 0.0, 0.0, 0.0, 0.0033333333333333335, 0.08888888888888889, 0.25555555555555554, 0.3333333333333333, 0.35888888888888887, 0.37333333333333335, 0.38222222222222224, 0.38555555555555554, 0.3877777777777778, 0.3888888888888889]","[0, 0, 0, 0, 0, 0, 0, 0, 0, 0, 0, 0, 0, 0, 0, 0, 0, 0, 0, 1]","[0, 0, 0, 0, 0, 0, 0, 0, 0, 0, 0, 0, 0, 0, 0, 0, 0, 0, 0, 0]","[0, 0, 0, 0, 0, 0, 0, 0, 0, 0, 0, 0, 0, 0, 0, 0, 0, 0, 0, 0]","[0.00021012500656070188, 0.04985333300282946, 0.09838083300564904, 0.1479121660013334, 0.19750158300303156, 0.24680229100340512, 0.2957710410046275, 0.34453320800093934, 0.3935652080035652, 0.44292162500642007, 0.49249658299959265, 0.5417510000042967, 0.5917287500051316, 0.6415812500054017, 0.6908871250052471, 0.7400749580046977, 0.7892205829994055, 0.8386844160049804, 0.8881768749997718, 0.9378886660051649]",344.039362375006,,,,,,,,921191,001,2024-02-05_16h18.39.649,WythoffsHumanExp,2023.1.3,None,
,,,,,,,,,,,,27,0,27,0,,,,,,,,,,,,,,,,,,,,,,,,,,,,,,,,,,,,,,,,,,,,,,,,,,0.06230416699690977,"[0.0, 0.0, 0.0, 0.0, 0.0, 0.0, 0.0, 0.0, 0.0, 0.0, 0.0, -0.04888888888888889, -0.20555555555555555, -0.3088888888888889, -0.36777777777777776, -0.3933333333333333, -0.41444444444444445, -0.4288888888888889, -0.43222222222222223, -0.43, -0.41333333333333333, -0.4022222222222222, -0.4]","[0.0, 0.0, 0.0, 0.0, 0.0, 0.0, 0.0, 0.0, 0.0, 0.0, 0.0, 0.035555555555555556, 0.14666666666666667, 0.2222222222222222, 0.25666666666666665, 0.26555555555555554, 0.2688888888888889, 0.27, 0.27111111111111114, 0.27, 0.24222222222222223, 0.2288888888888889, 0.22777777777777777]","[0, 0, 0, 0, 0, 0, 0, 0, 0, 0, 0, 0, 0, 0, 0, 0, 0, 0, 0, 0, 0, 0, 1]","[0, 0, 0, 0, 0, 0, 0, 0, 0, 0, 0, 0, 0, 0, 0, 0, 0, 0, 0, 0, 0, 0, 0]","[0, 0, 0, 0, 0, 0, 0, 0, 0, 0, 0, 0, 0, 0, 0, 0, 0, 0, 0, 0, 0, 0, 0]","[0.00021500000002561137, 0.04980279200390214, 0.09875375000410713, 0.147904750003363, 0.1973852090013679, 0.2461901670030784, 0.2951329170027748, 0.34392195899999933, 0.393056125001749, 0.4415839590001269, 0.4916102920033154, 0.5407682090008166, 0.5903702499999781, 0.6398857919994043, 0.6899697920016479, 0.7389996249985415, 0.7887188750028145, 0.8379982089973055, 0.8872317089990247, 0.9365237500023795, 0.9860380840036669, 1.0354831669974374, 1.0853645840034005]",353.7300365830015,,,,,,,,921191,001,2024-02-05_16h18.39.649,WythoffsHumanExp,2023.1.3,None,
,,,,,,,,,,,,28,0,28,0,,,,,,,,,,,,,,,,,,,,,,,,,,,,,,,,,,,,,,,,,,,,,,,,,,0.017014958000800107,"[0.0, 0.0, 0.0, 0.0, 0.0, 0.0, 0.0, 0.0, 0.0, -0.016666666666666666, -0.06666666666666667, -0.17, -0.24555555555555555, -0.30444444444444446, -0.34444444444444444, -0.37777777777777777, -0.4033333333333333, -0.42, -0.43, -0.43333333333333335, -0.43444444444444447, -0.43444444444444447, -0.43444444444444447]","[0.0, 0.0, 0.0, 0.0, 0.0, 0.0, 0.0, 0.0, 0.0, 0.005555555555555556, 0.028888888888888888, 0.10111111111111111, 0.17777777777777778, 0.25, 0.29333333333333333, 0.3244444444444444, 0.3477777777777778, 0.36666666666666664, 0.3811111111111111, 0.39666666666666667, 0.4077777777777778, 0.41, 0.41]","[0, 0, 0, 0, 0, 0, 0, 0, 0, 0, 0, 0, 0, 0, 0, 0, 0, 0, 0, 0, 0, 1, 0]","[0, 0, 0, 0, 0, 0, 0, 0, 0, 0, 0, 0, 0, 0, 0, 0, 0, 0, 0, 0, 0, 0, 0]","[0, 0, 0, 0, 0, 0, 0, 0, 0, 0, 0, 0, 0, 0, 0, 0, 0, 0, 0, 0, 0, 0, 0]","[0.00021362500410759822, 0.050562832999276, 0.09961412499978906, 0.14960104200144997, 0.19918254199728835, 0.2482681670007878, 0.29742075000103796, 0.34626691700395895, 0.3956554579999647, 0.44526479199703317, 0.4954015420007636, 0.5451463330027764, 0.5950198330028797, 0.6446667080017505, 0.6940294579981128, 0.7444058330002008, 0.7938763330021175, 0.843429708002077, 0.8931862079989514, 0.9433684579998953, 0.9935992079990683, 1.0433858329997747, 1.0933914170018397]",367.7285768750007,,,,,,,,921191,001,2024-02-05_16h18.39.649,WythoffsHumanExp,2023.1.3,None,
,,,,,,,,,,,,29,0,29,0,,,,,,,,,,,,,,,,,,,,,,,,,,,,,,,,,,,,,,,,,,,,,,,,,,0.01703804199496517,"[0.0, 0.0, 0.0, 0.0, 0.0, 0.0, 0.0, -0.023333333333333334, -0.15444444444444444, -0.3088888888888889, -0.39222222222222225, -0.4222222222222222, -0.42777777777777776, -0.42777777777777776, -0.4266666666666667, -0.4088888888888889, -0.37777777777777777, -0.3688888888888889, -0.36777777777777776]","[0.0, 0.0, 0.0, 0.0, 0.0, 0.0, 0.0, 0.027777777777777776, 0.18888888888888888, 0.3422222222222222, 0.4122222222222222, 0.44, 0.45222222222222225, 0.45444444444444443, 0.45444444444444443, 0.4411111111111111, 0.41888888888888887, 0.41333333333333333, 0.4122222222222222]","[0, 0, 0, 0, 0, 0, 0, 0, 0, 0, 0, 0, 0, 0, 0, 0, 0, 0, 1]","[0, 0, 0, 0, 0, 0, 0, 0, 0, 0, 0, 0, 0, 0, 0, 0, 0, 0, 0]","[0, 0, 0, 0, 0, 0, 0, 0, 0, 0, 0, 0, 0, 0, 0, 0, 0, 0, 0]","[0.00021212499996181577, 0.051132666994817555, 0.10102520899818046, 0.15003908400103683, 0.1987165839964291, 0.24742416699882597, 0.29662329200073145, 0.3473690839964547, 0.39729258399893297, 0.44760191699606366, 0.49695283400069457, 0.5465168339942466, 0.5967440839958726, 0.6467541669990169, 0.6972282499991707, 0.7472546669960138, 0.7970567499942263, 0.8469942089941469, 0.8970622919950983]",379.470727083004,,,,,,,,921191,001,2024-02-05_16h18.39.649,WythoffsHumanExp,2023.1.3,None,
,,,,,,,,,,,,,,,,,,,,,,,,,,,,,,,,,,,,,,,,,,,,,,,,,,,,,,,,,,,,,,,,,,,,,,,,,,380.2418535830002,,,,,,921191,001,2024-02-05_16h18.39.649,WythoffsHumanExp,2023.1.3,None,
,,,,,,,,,,,,,,,,,,,,,,,,,,,,,,,,,,,,,,,,,,,,,,,,,,,,,,,,,,,,,,,,,,,,,,,,,,,,,,,,921191,001,2024-02-05_16h18.39.649,WythoffsHumanExp,2023.1.3,None,
,,,,,,,,,,,,,,,,,,,,,,,,,,,,,,,,,,,,,,,,,,,,,,,,,,,,,,,,,,,,,,,,,,,,,,,,,,,,,,,,921191,001,2024-02-05_16h18.39.649,WythoffsHumanExp,2023.1.3,None,
,,,,,,,,,,,,,,,,,,,,,,,,,,,,,,,,,,,,,,,,,,,,,,,,,,,,,,,,,,,,,,,,,0.017023125001287553,"[0.0, 0.0, 0.0, 0.0, 0.0, 0.0, 0.0, 0.0, 0.0, 0.0, 0.0, 0.0, 0.0, 0.0, 0.0, -0.028888888888888888, -0.12222222222222222, -0.22111111111111112, -0.29, -0.33444444444444443, -0.36666666666666664, -0.3844444444444444, -0.4022222222222222, -0.4077777777777778, -0.4111111111111111, -0.4177777777777778, -0.41888888888888887, -0.4177777777777778, -0.4177777777777778]","[0.0, 0.0, 0.0, 0.0, 0.0, 0.0, 0.0, 0.0, 0.0, 0.0, 0.0, 0.0, 0.0, 0.0, 0.0, 0.02, 0.1, 0.20666666666666667, 0.3, 0.35888888888888887, 0.38333333333333336, 0.39222222222222225, 0.39555555555555555, 0.39444444444444443, 0.3877777777777778, 0.37, 0.3566666666666667, 0.35555555555555557, 0.35555555555555557]","[0, 0, 0, 0, 0, 0, 0, 0, 0, 0, 0, 0, 0, 0, 0, 0, 0, 0, 0, 0, 0, 0, 0, 0, 0, 0, 0, 1, 0]","[0, 0, 0, 0, 0, 0, 0, 0, 0, 0, 0, 0, 0, 0, 0, 0, 0, 0, 0, 0, 0, 0, 0, 0, 0, 0, 0, 0, 0]","[0, 0, 0, 0, 0, 0, 0, 0, 0, 0, 0, 0, 0, 0, 0, 0, 0, 0, 0, 0, 0, 0, 0, 0, 0, 0, 0, 0, 0]","[0.00028216600185260177, 0.05070675000024494, 0.09973387500212993, 0.14832325000315905, 0.19681329100421863, 0.24571458300488302, 0.2945802910035127, 0.34394008300296264, 0.3934629159994074, 0.44290037500468316, 0.49226829100371106, 0.5417874160048086, 0.5912773750023916, 0.6410102500012727, 0.691230208001798, 0.7417952910036547, 0.7929736250007409, 0.8433928750018822, 0.8939501249988098, 0.9434307910050848, 0.9943086249986663, 1.044886708004924, 1.0955511659994954, 1.1451620830048341, 1.1950507080036914, 1.2445688330044504, 1.294118083002104, 1.3448446250040433, 1.3952594580041477]",1004.1820116660019,,,381.8718216250054,674.3806289580025,,,,921191,001,2024-02-05_16h18.39.649,WythoffsHumanExp,2023.1.3,None,
,,,,,,,,,,,,,,,,,,,,,,,,,,,,,,,,,,,,,,,,,,,,,,,,,,,,,,,,,,,,,,,,,,,,,,,,,,,,,1005.1647636250054,,,921191,001,2024-02-05_16h18.39.649,WythoffsHumanExp,2023.1.3,None,
,,,,,,,,,,,,,,,,,,,,,,,,,,,,,,,,,,,,,,,,,,,,,,,,,,,,,,,,0,0,0,0,,,,,,0.01701708300242899,"[0.0, 0.0, 0.0, 0.0, 0.0, 0.0, 0.0, 0.0, -0.02, -0.13555555555555557, -0.27444444444444444, -0.3522222222222222, -0.38666666666666666, -0.40444444444444444, -0.42, -0.43222222222222223, -0.43444444444444447, -0.43444444444444447]","[0.0, 0.0, 0.0, 0.0, 0.0, 0.0, 0.0, 0.0, 0.014444444444444444, 0.11555555555555555, 0.24555555555555555, 0.3233333333333333, 0.3477777777777778, 0.35444444444444445, 0.35888888888888887, 0.3655555555555556, 0.37222222222222223, 0.37222222222222223]","[0, 0, 0, 0, 0, 0, 0, 0, 0, 0, 0, 0, 0, 0, 0, 0, 1, 1]","[0, 0, 0, 0, 0, 0, 0, 0, 0, 0, 0, 0, 0, 0, 0, 0, 0, 0]","[0, 0, 0, 0, 0, 0, 0, 0, 0, 0, 0, 0, 0, 0, 0, 0, 0, 0]","[0.00028162499802419916, 0.05071620799571974, 0.09958320800069487, 0.14831237500038696, 0.1975220000022091, 0.24654208299762104, 0.2958867499983171, 0.3457724580002832, 0.39602949999971315, 0.44614316699880874, 0.49551708299986785, 0.5449392919981619, 0.594180125001003, 0.6438051669974811, 0.6934209999963059, 0.7437579999968875, 0.7942432919953717, 0.8435936249952647]",1067.3147922080025,,,,,,1054.216427583,,921191,001,2024-02-05_16h18.39.649,WythoffsHumanExp,2023.1.3,None,
,,,,,,,,,,,,,,,,,,,,,,,,,,,,,,,,,,,,,,,,,,,,,,,,,,,,,,,,1,0,1,0,,,,,,0.017073916998924688,"[0.0, 0.0, 0.0, 0.0, 0.0, 0.0, 0.0, 0.0, 0.0, 0.0, 0.0, 0.0, -0.006666666666666667, -0.043333333333333335, -0.12666666666666668, -0.2222222222222222, -0.29333333333333333, -0.35, -0.3888888888888889, -0.4077777777777778, -0.4177777777777778, -0.4255555555555556, -0.4288888888888889, -0.4288888888888889]","[0.0, 0.0, 0.0, 0.0, 0.0, 0.0, 0.0, 0.0, 0.0, 0.0, 0.0, 0.0, 0.023333333333333334, 0.06, 0.13, 0.22, 0.2822222222222222, 0.33, 0.36777777777777776, 0.39111111111111113, 0.4011111111111111, 0.4077777777777778, 0.4111111111111111, 0.4111111111111111]","[0, 0, 0, 0, 0, 0, 0, 0, 0, 0, 0, 0, 0, 0, 0, 0, 0, 0, 0, 0, 0, 0, 1, 0]","[0, 0, 0, 0, 0, 0, 0, 0, 0, 0, 0, 0, 0, 0, 0, 0, 0, 0, 0, 0, 0, 0, 0, 0]","[0, 0, 0, 0, 0, 0, 0, 0, 0, 0, 0, 0, 0, 0, 0, 0, 0, 0, 0, 0, 0, 0, 0, 0]","[0.00028554099844768643, 0.05086991599819157, 0.09990383299737005, 0.1495423749947804, 0.19889916599640856, 0.24925837499904446, 0.29865262499515666, 0.34836916600033874, 0.39794187499501277, 0.4473119999966002, 0.4965964160001022, 0.5462439580005594, 0.5966083749954123, 0.6468085829983465, 0.6965170409966959, 0.7460179999980028, 0.7954027499945369, 0.8454569159948733, 0.8954472909972537, 0.9457838329981314, 0.9954729159944691, 1.0449149579944788, 1.0949534159954055, 1.1450018329996965]",1079.2826196250026,,,,,,,,921191,001,2024-02-05_16h18.39.649,WythoffsHumanExp,2023.1.3,None,
,,,,,,,,,,,,,,,,,,,,,,,,,,,,,,,,,,,,,,,,,,,,,,,,,,,,,,,,2,0,2,0,,,,,,0.01701879099709913,"[0.0, 0.0, 0.0, 0.0, 0.0, 0.0, 0.0, 0.0, 0.0, -0.02, -0.08, -0.16333333333333333, -0.23, -0.27666666666666667, -0.31, -0.32555555555555554, -0.3377777777777778, -0.34444444444444444, -0.35777777777777775, -0.38, -0.39555555555555555, -0.4, -0.4]","[0.0, 0.0, 0.0, 0.0, 0.0, 0.0, 0.0, 0.0, 0.0, 0.013333333333333334, 0.05444444444444444, 0.11444444444444445, 0.16444444444444445, 0.20444444444444446, 0.23777777777777778, 0.2544444444444444, 0.2633333333333333, 0.2677777777777778, 0.27, 0.27444444444444444, 0.2833333333333333, 0.2922222222222222, 0.2922222222222222]","[0, 0, 0, 0, 0, 0, 0, 0, 0, 0, 0, 0, 0, 0, 0, 0, 0, 0, 0, 0, 0, 1, 0]","[0, 0, 0, 0, 0, 0, 0, 0, 0, 0, 0, 0, 0, 0, 0, 0, 0, 0, 0, 0, 0, 0, 0]","[0, 0, 0, 0, 0, 0, 0, 0, 0, 0, 0, 0, 0, 0, 0, 0, 0, 0, 0, 0, 0, 0, 0]","[0.00028383299650158733, 0.050458749996323604, 0.09958470799756469, 0.14851108299626503, 0.19715783299761824, 0.24586283299868228, 0.2944405829985044, 0.34335316700162366, 0.39290095799515257, 0.44313358300132677, 0.49263737499859417, 0.5431182079992141, 0.5926529169955757, 0.6422862920007901, 0.6920567080014735, 0.7414479169965489, 0.7914098749970435, 0.8417437079988304, 0.8921154999989085, 0.9419095420016674, 0.991410916998575, 1.0424399580006138, 1.0923167500004638]",1091.210427291,,,,,,,,921191,001,2024-02-05_16h18.39.649,WythoffsHumanExp,2023.1.3,None,
,,,,,,,,,,,,,,,,,,,,,,,,,,,,,,,,,,,,,,,,,,,,,,,,,,,,,,,,3,0,3,0,,,,,,0.017015500001434702,"[0.0, 0.0, 0.0, 0.0, 0.0, 0.0, 0.0, 0.0, -0.013333333333333334, -0.1322222222222222, -0.3244444444444444, -0.48444444444444446, -0.5533333333333333, -0.5666666666666667, -0.57, -0.5677777777777778, -0.5611111111111111, -0.5144444444444445, -0.4666666666666667, -0.45666666666666667, -0.45555555555555555, -0.45444444444444443, -0.45444444444444443, -0.45444444444444443, -0.4533333333333333, -0.4533333333333333, -0.45222222222222225, -0.44666666666666666, -0.43555555555555553, -0.43222222222222223]","[0.0, 0.0, 0.0, 0.0, 0.0, 0.0, 0.0, 0.0, 0.008888888888888889, 0.0811111111111111, 0.22, 0.36, 0.43333333333333335, 0.4533333333333333, 0.46111111111111114, 0.4633333333333333, 0.4622222222222222, 0.4488888888888889, 0.43444444444444447, 0.42777777777777776, 0.4255555555555556, 0.42444444444444446, 0.42444444444444446, 0.42444444444444446, 0.42444444444444446, 0.42444444444444446, 0.42444444444444446, 0.42444444444444446, 0.42444444444444446, 0.42333333333333334]","[0, 0, 0, 0, 0, 0, 0, 0, 0, 0, 0, 0, 0, 0, 0, 0, 0, 0, 0, 0, 0, 1, 1, 0, 0, 0, 0, 0, 0, 1]","[0, 0, 0, 0, 0, 0, 0, 0, 0, 0, 0, 0, 0, 0, 0, 0, 0, 0, 0, 0, 0, 0, 0, 0, 0, 0, 0, 0, 0, 0]","[0, 0, 0, 0, 0, 0, 0, 0, 0, 0, 0, 0, 0, 0, 0, 0, 0, 0, 0, 0, 0, 0, 0, 0, 0, 0, 0, 0, 0, 0]","[0.00028645899874391034, 0.051778666995232925, 0.10058816699893214, 0.14944916700187605, 0.19917866699688602, 0.24897645899909548, 0.29877741699601756, 0.348885708997841, 0.3995697919963277, 0.4499821669960511, 0.5006469169966294, 0.5502399999968475, 0.6005821669969009, 0.6503946250013541, 0.7005214169985265, 0.7508246249999502, 0.8007244170003105, 0.850412084000709, 0.9003922499978216, 0.9508014999955776, 1.0004630420007743, 1.0511570000016945, 1.1007597089992487, 1.1504693749957369, 1.1989401249957155, 1.249413083998661, 1.2995272089974605, 1.3501394999984768, 1.4006146669998998, 1.4507142500006012]",1103.1178827910044,,,,,,,,921191,001,2024-02-05_16h18.39.649,WythoffsHumanExp,2023.1.3,None,
,,,,,,,,,,,,,,,,,,,,,,,,,,,,,,,,,,,,,,,,,,,,,,,,,,,,,,,,4,0,4,0,,,,,,0.03351949999341741,"[0.0, 0.0, 0.0, 0.0, 0.0, 0.0, 0.0, 0.0, 0.0, 0.0, 0.0, 0.0, -0.0022222222222222222, -0.011111111111111112, -0.017777777777777778, -0.017777777777777778, -0.017777777777777778, -0.017777777777777778, -0.017777777777777778, -0.015555555555555555, -0.012222222222222223, -0.012222222222222223]","[0.0, 0.0, 0.0, 0.0, 0.0, 0.0, 0.0, 0.0, 0.0, 0.0, 0.0, 0.0, 0.006666666666666667, 0.04555555555555556, 0.14777777777777779, 0.2722222222222222, 0.35333333333333333, 0.3933333333333333, 0.41444444444444445, 0.4222222222222222, 0.42333333333333334, 0.42333333333333334]","[0, 0, 0, 0, 0, 0, 0, 0, 0, 0, 0, 0, 0, 0, 0, 0, 0, 0, 0, 0, 1, 1]","[0, 0, 0, 0, 0, 0, 0, 0, 0, 0, 0, 0, 0, 0, 0, 0, 0, 0, 0, 0, 0, 0]","[0, 0, 0, 0, 0, 0, 0, 0, 0, 0, 0, 0, 0, 0, 0, 0, 0, 0, 0, 0, 0, 0]","[0.0003016659975401126, 0.04974491599568864, 0.09848191600030987, 0.14721816599922022, 0.19654562499636086, 0.24547112499567447, 0.29482270799780963, 0.34387716600031126, 0.3935544159976416, 0.44318766599462833, 0.4932235409942223, 0.543948165999609, 0.5944606249977369, 0.6445728749968112, 0.6949966659958591, 0.7453306249954039, 0.796170790999895, 0.8460657499963418, 0.895697249994555, 0.9451947499983362, 0.9960834579978837, 1.046194499998819]",1114.0751657500005,,,,,,,,921191,001,2024-02-05_16h18.39.649,WythoffsHumanExp,2023.1.3,None,
,,,,,,,,,,,,,,,,,,,,,,,,,,,,,,,,,,,,,,,,,,,,,,,,,,,,,,,,5,0,5,0,,,,,,0.01698137500352459,"[0.0, 0.0, 0.0, 0.0, 0.0, 0.0, 0.0, 0.0, 0.0, 0.0, 0.0, 0.0, 0.0, 0.0, 0.0, 0.0, -0.006666666666666667, -0.09333333333333334, -0.20444444444444446, -0.2866666666666667, -0.31666666666666665, -0.3277777777777778, -0.33444444444444443, -0.3388888888888889, -0.3488888888888889, -0.3688888888888889, -0.39111111111111113, -0.40444444444444444, -0.40555555555555556, -0.4066666666666667, -0.4066666666666667, -0.4066666666666667, -0.4066666666666667, -0.4066666666666667, -0.4066666666666667, -0.4066666666666667, -0.4066666666666667, -0.4066666666666667, -0.4066666666666667, -0.4066666666666667, -0.4066666666666667, -0.4066666666666667, -0.4066666666666667, -0.4066666666666667, -0.4066666666666667, -0.4066666666666667, -0.4066666666666667, -0.4066666666666667, -0.4066666666666667, -0.4066666666666667, -0.4066666666666667, -0.4066666666666667, -0.4066666666666667, -0.4066666666666667, -0.4066666666666667, -0.40444444444444444, -0.32, -0.18555555555555556, -0.15666666666666668, -0.15222222222222223, -0.15222222222222223, -0.15222222222222223, -0.15333333333333332, -0.15777777777777777, -0.1622222222222222, -0.16555555555555557, -0.16666666666666666, -0.16777777777777778]","[0.0, 0.0, 0.0, 0.0, 0.0, 0.0, 0.0, 0.0, 0.0, 0.0, 0.0, 0.0, 0.0, 0.0, 0.0, 0.0, 0.0044444444444444444, 0.09888888888888889, 0.22666666666666666, 0.31777777777777777, 0.35444444444444445, 0.3711111111111111, 0.3811111111111111, 0.3844444444444444, 0.38222222222222224, 0.38222222222222224, 0.39555555555555555, 0.4066666666666667, 0.4077777777777778, 0.4088888888888889, 0.4088888888888889, 0.4088888888888889, 0.4088888888888889, 0.4088888888888889, 0.4088888888888889, 0.4088888888888889, 0.4088888888888889, 0.4088888888888889, 0.4088888888888889, 0.4088888888888889, 0.4088888888888889, 0.4088888888888889, 0.4088888888888889, 0.4088888888888889, 0.4088888888888889, 0.4088888888888889, 0.4088888888888889, 0.4088888888888889, 0.4088888888888889, 0.4088888888888889, 0.4088888888888889, 0.4088888888888889, 0.4088888888888889, 0.4088888888888889, 0.4088888888888889, 0.41, 0.43333333333333335, 0.44666666666666666, 0.4477777777777778, 0.4477777777777778, 0.4488888888888889, 0.4488888888888889, 0.4488888888888889, 0.4444444444444444, 0.4388888888888889, 0.43333333333333335, 0.4311111111111111, 0.4311111111111111]","[0, 0, 0, 0, 0, 0, 0, 0, 0, 0, 0, 0, 0, 0, 0, 0, 0, 0, 0, 0, 0, 0, 0, 0, 0, 0, 0, 1, 0, 0, 0, 0, 0, 0, 0, 0, 0, 0, 0, 0, 0, 0, 0, 0, 0, 0, 0, 0, 0, 0, 0, 0, 0, 0, 0, 0, 0, 0, 0, 0, 0, 0, 0, 0, 0, 0, 0, 1]","[0, 0, 0, 0, 0, 0, 0, 0, 0, 0, 0, 0, 0, 0, 0, 0, 0, 0, 0, 0, 0, 0, 0, 0, 0, 0, 0, 0, 0, 0, 0, 0, 0, 0, 0, 0, 0, 0, 0, 0, 0, 0, 0, 0, 0, 0, 0, 0, 0, 0, 0, 0, 0, 0, 0, 0, 0, 0, 0, 0, 0, 0, 0, 0, 0, 0, 0, 0]","[0, 0, 0, 0, 0, 0, 0, 0, 0, 0, 0, 0, 0, 0, 0, 0, 0, 0, 0, 0, 0, 0, 0, 0, 0, 0, 0, 0, 0, 0, 0, 0, 0, 0, 0, 0, 0, 0, 0, 0, 0, 0, 0, 0, 0, 0, 0, 0, 0, 0, 0, 0, 0, 0, 0, 0, 0, 0, 0, 0, 0, 0, 0, 0, 0, 0, 0, 0]","[0.0002936669989139773, 0.05053695900278399, 0.09892483400471974, 0.14762162500119302, 0.1966375420015538, 0.24575633399945218, 0.29544875000283355, 0.34528583400242496, 0.39594783400389133, 0.4455748750042403, 0.495275708999543, 0.5445021670020651, 0.5934874590020627, 0.6431075420041452, 0.692533084002207, 0.7422068750020117, 0.7918754170023021, 0.8416392500002985, 0.8909693340028753, 0.9405916670002625, 0.9900667920010164, 1.0399744590031332, 1.0901084170036484, 1.1401075840039994, 1.1896542090034927, 1.2392650840047281, 1.2883622920053313, 1.3387412920055795, 1.3890454590000445, 1.4384992090053856, 1.487454667003476, 1.5362112920047366, 1.5847588750038994, 1.633645667003293, 1.682671709000715, 1.7312169590004487, 1.7802013340042322, 1.829598292002629, 1.879325375004555, 1.9286527920048684, 1.9781891250022454, 2.0275446250016103, 2.076722666999558, 2.1251541250021546, 2.174082959005318, 2.223352542001521, 2.271727750005084, 2.3209122920015943, 2.370258584000112, 2.4192428340029437, 2.4675536670038127, 2.5163155000045663, 2.5649096250053844, 2.6138858340054867, 2.6632598750002217, 2.7133965419998276, 2.7638320840051165, 2.813825959005044, 2.863561500002106, 2.9133092090050923, 2.963187209003081, 3.0130168340037926, 3.062901792000048, 3.1134805000037886, 3.163358000005246, 3.2129956249991665, 3.263213000005635, 3.3133909169991966]",1128.2194937910026,,,,,,,,921191,001,2024-02-05_16h18.39.649,WythoffsHumanExp,2023.1.3,None,
,,,,,,,,,,,,,,,,,,,,,,,,,,,,,,,,,,,,,,,,,,,,,,,,,,,,,,,,6,0,6,0,,,,,,0.04953758299961919,"[0.0, 0.0, 0.0, 0.0, 0.0, 0.0, 0.0, 0.0, 0.0, 0.0, -0.05555555555555555, -0.14888888888888888, -0.27111111111111114, -0.37666666666666665, -0.41444444444444445, -0.42777777777777776, -0.44, -0.44222222222222224, -0.44222222222222224, -0.44222222222222224, -0.44222222222222224, -0.44222222222222224, -0.44222222222222224, -0.44222222222222224, -0.44222222222222224, -0.44222222222222224, -0.44222222222222224, -0.44, -0.42444444444444446, -0.4122222222222222, -0.4111111111111111]","[0.0, 0.0, 0.0, 0.0, 0.0, 0.0, 0.0, 0.0, 0.0, 0.0, 0.01888888888888889, 0.051111111111111114, 0.08888888888888889, 0.1111111111111111, 0.11777777777777777, 0.11777777777777777, 0.12222222222222222, 0.12444444444444444, 0.12444444444444444, 0.12555555555555556, 0.12555555555555556, 0.12555555555555556, 0.12555555555555556, 0.12555555555555556, 0.12555555555555556, 0.12555555555555556, 0.12555555555555556, 0.12555555555555556, 0.12555555555555556, 0.12555555555555556, 0.12555555555555556]","[0, 0, 0, 0, 0, 0, 0, 0, 0, 0, 0, 0, 0, 0, 0, 0, 0, 1, 0, 0, 0, 0, 0, 0, 0, 0, 0, 0, 0, 1, 1]","[0, 0, 0, 0, 0, 0, 0, 0, 0, 0, 0, 0, 0, 0, 0, 0, 0, 0, 0, 0, 0, 0, 0, 0, 0, 0, 0, 0, 0, 0, 0]","[0, 0, 0, 0, 0, 0, 0, 0, 0, 0, 0, 0, 0, 0, 0, 0, 0, 0, 0, 0, 0, 0, 0, 0, 0, 0, 0, 0, 0, 0, 0]","[0.00029979100509081036, 0.04917970800306648, 0.09798333300568629, 0.14650679100304842, 0.19499475000338862, 0.243573166000715, 0.2932312080010888, 0.343083875006414, 0.39329025000188267, 0.4433487080023042, 0.49391204100538744, 0.5441794160069549, 0.595019250002224, 0.6460116660018684, 0.6956087500002468, 0.744861375002074, 0.7951738330011722, 0.8450632910025888, 0.896042333006335, 0.9456071660024463, 0.9946829580003396, 1.043882375000976, 1.0940107080023154, 1.143444500004989, 1.1931147500072257, 1.2429629160033073, 1.2934332500008168, 1.3437867500033462, 1.394586041002185, 1.4455913330020849, 1.4956402500029071]",1138.1536128750013,,,,,,,,921191,001,2024-02-05_16h18.39.649,WythoffsHumanExp,2023.1.3,None,
,,,,,,,,,,,,,,,,,,,,,,,,,,,,,,,,,,,,,,,,,,,,,,,,,,,,,,,,7,0,7,0,,,,,,0.01697033399977954,"[0.0, 0.0, 0.0, 0.0, 0.0, 0.0, 0.0, -0.008888888888888889, -0.06111111111111111, -0.18555555555555556, -0.29, -0.32, -0.33111111111111113, -0.33555555555555555, -0.34444444444444444, -0.36444444444444446, -0.3811111111111111, -0.38666666666666666, -0.3877777777777778]","[0.0, 0.0, 0.0, 0.0, 0.0, 0.0, 0.0, 0.008888888888888889, 0.06111111111111111, 0.17444444444444446, 0.2688888888888889, 0.2966666666666667, 0.30333333333333334, 0.3055555555555556, 0.3088888888888889, 0.3188888888888889, 0.32666666666666666, 0.33111111111111113, 0.3333333333333333]","[0, 0, 0, 0, 0, 0, 0, 0, 0, 0, 0, 0, 0, 0, 0, 0, 0, 1, 1]","[0, 0, 0, 0, 0, 0, 0, 0, 0, 0, 0, 0, 0, 0, 0, 0, 0, 0, 0]","[0, 0, 0, 0, 0, 0, 0, 0, 0, 0, 0, 0, 0, 0, 0, 0, 0, 0, 0]","[0.0002947089960798621, 0.0505963339965092, 0.0991381249987171, 0.14744716699351557, 0.19611612500011688, 0.2450709589975304, 0.29496574999939185, 0.345166833998519, 0.39484983399597695, 0.4454799169980106, 0.4956051249973825, 0.5462282089938526, 0.595567291995394, 0.64578137499484, 0.6954861249978421, 0.7455884999944828, 0.795446666998032, 0.8462584169974434, 0.8962344589963323]",1149.7773486660008,,,,,,,,921191,001,2024-02-05_16h18.39.649,WythoffsHumanExp,2023.1.3,None,
,,,,,,,,,,,,,,,,,,,,,,,,,,,,,,,,,,,,,,,,,,,,,,,,,,,,,,,,8,0,8,0,,,,,,0.01702583400037838,"[0.0, 0.0, 0.0, 0.0, 0.0, 0.0, 0.0, 0.0, 0.0, 0.0, 0.0, 0.0, 0.0, -0.027777777777777776, -0.14555555555555555, -0.29555555555555557, -0.36666666666666664, -0.3933333333333333, -0.4077777777777778, -0.41333333333333333, -0.4166666666666667, -0.4166666666666667, -0.4166666666666667, -0.41333333333333333, -0.41, -0.4077777777777778]","[0.0, 0.0, 0.0, 0.0, 0.0, 0.0, 0.0, 0.0, 0.0, 0.0, 0.0, 0.0, 0.0, 0.035555555555555556, 0.1711111111111111, 0.3333333333333333, 0.4211111111111111, 0.45666666666666667, 0.4711111111111111, 0.47555555555555556, 0.47555555555555556, 0.47555555555555556, 0.45555555555555555, 0.4288888888888889, 0.42333333333333334, 0.4222222222222222]","[0, 0, 0, 0, 0, 0, 0, 0, 0, 0, 0, 0, 0, 0, 0, 0, 0, 0, 0, 0, 0, 0, 0, 0, 0, 1]","[0, 0, 0, 0, 0, 0, 0, 0, 0, 0, 0, 0, 0, 0, 0, 0, 0, 0, 0, 0, 0, 0, 0, 0, 0, 0]","[0, 0, 0, 0, 0, 0, 0, 0, 0, 0, 0, 0, 0, 0, 0, 0, 0, 0, 0, 0, 0, 0, 0, 0, 0, 0]","[0.00029320800240384415, 0.05066429099679226, 0.09974499999952968, 0.14872429100068985, 0.19735545799630927, 0.2463261250013602, 0.29491016599786235, 0.34368166599597316, 0.3929564999998547, 0.4427548329986166, 0.49268733299686573, 0.5424106659993413, 0.5924105410012999, 0.6427881249983329, 0.6932770409985096, 0.7438140829981421, 0.7947467080011847, 0.8446635410000454, 0.8941154580024886, 0.9442154999997001, 0.9935474160010926, 1.0435677080022288, 1.094583040998259, 1.1446477079953183, 1.1944507079970208, 1.2442150409988244]",1163.5874707910043,,,,,,,,921191,001,2024-02-05_16h18.39.649,WythoffsHumanExp,2023.1.3,None,
,,,,,,,,,,,,,,,,,,,,,,,,,,,,,,,,,,,,,,,,,,,,,,,,,,,,,,,,9,0,9,0,,,,,,0.017086542000470217,"[0.0, 0.0, 0.0, 0.0, 0.0, 0.0, 0.0, -0.028888888888888888, -0.08222222222222222, -0.16777777777777778, -0.23666666666666666, -0.29, -0.33, -0.34444444444444444, -0.35555555555555557, -0.37333333333333335, -0.3988888888888889, -0.4111111111111111, -0.41555555555555557, -0.4166666666666667, -0.41333333333333333, -0.4066666666666667, -0.4066666666666667]","[0.0, 0.0, 0.0, 0.0, 0.0, 0.0, 0.0, 0.02, 0.051111111111111114, 0.13111111111111112, 0.20222222222222222, 0.24333333333333335, 0.2733333333333333, 0.2911111111111111, 0.3055555555555556, 0.32, 0.34, 0.35888888888888887, 0.3788888888888889, 0.39555555555555555, 0.4066666666666667, 0.4122222222222222, 0.41333333333333333]","[0, 0, 0, 0, 0, 0, 0, 0, 0, 0, 0, 0, 0, 0, 0, 0, 0, 0, 0, 0, 0, 1, 0]","[0, 0, 0, 0, 0, 0, 0, 0, 0, 0, 0, 0, 0, 0, 0, 0, 0, 0, 0, 0, 0, 0, 0]","[0, 0, 0, 0, 0, 0, 0, 0, 0, 0, 0, 0, 0, 0, 0, 0, 0, 0, 0, 0, 0, 0, 0]","[0.00029179199918871745, 0.051108624997141305, 0.10038699999859091, 0.15006204199744388, 0.19969729199510766, 0.24923495799885131, 0.29911574999277946, 0.3489250419952441, 0.3983925829961663, 0.448629541999253, 0.49903033299779054, 0.5492369169951417, 0.5994917919961154, 0.6492031249945285, 0.6989578749999055, 0.7487362919928273, 0.798334374994738, 0.8481237499945564, 0.8974748329928843, 0.9473468329961179, 0.9969814579962986, 1.0470659169950522, 1.0966072079972946]",1177.5709082080066,,,,,,,,921191,001,2024-02-05_16h18.39.649,WythoffsHumanExp,2023.1.3,None,
,,,,,,,,,,,,,,,,,,,,,,,,,,,,,,,,,,,,,,,,,,,,,,,,,,,,,,,,10,0,10,0,,,,,,0.017079999997804407,"[0.0, 0.0, 0.0, 0.0, 0.0, 0.0, 0.0, 0.0, 0.0, -0.012222222222222223, -0.1511111111111111, -0.3711111111111111, -0.44666666666666666, -0.4622222222222222, -0.4666666666666667, -0.4666666666666667, -0.4666666666666667, -0.4666666666666667, -0.4622222222222222, -0.42777777777777776, -0.38666666666666666, -0.37777777777777777, -0.37666666666666665, -0.37666666666666665, -0.37666666666666665, -0.37666666666666665, -0.37666666666666665, -0.37666666666666665, -0.37666666666666665, -0.37777777777777777, -0.3977777777777778, -0.40555555555555556, -0.40555555555555556]","[0.0, 0.0, 0.0, 0.0, 0.0, 0.0, 0.0, 0.0, 0.0, 0.006666666666666667, 0.11333333333333333, 0.31666666666666665, 0.42444444444444446, 0.44333333333333336, 0.44555555555555554, 0.44555555555555554, 0.44555555555555554, 0.44555555555555554, 0.44555555555555554, 0.43333333333333335, 0.42, 0.41555555555555557, 0.41444444444444445, 0.41444444444444445, 0.41444444444444445, 0.41444444444444445, 0.41444444444444445, 0.41444444444444445, 0.41444444444444445, 0.41444444444444445, 0.4122222222222222, 0.4111111111111111, 0.4111111111111111]","[0, 0, 0, 0, 0, 0, 0, 0, 0, 0, 0, 0, 0, 0, 0, 0, 0, 0, 0, 0, 0, 0, 1, 0, 0, 0, 0, 0, 0, 0, 0, 1, 1]","[0, 0, 0, 0, 0, 0, 0, 0, 0, 0, 0, 0, 0, 0, 0, 0, 0, 0, 0, 0, 0, 0, 0, 0, 0, 0, 0, 0, 0, 0, 0, 0, 0]","[0, 0, 0, 0, 0, 0, 0, 0, 0, 0, 0, 0, 0, 0, 0, 0, 0, 0, 0, 0, 0, 0, 0, 0, 0, 0, 0, 0, 0, 0, 0, 0, 0]","[0.00029270799859659746, 0.051267666996864136, 0.10039929200138431, 0.1501587919992744, 0.19959341699723154, 0.2485095000010915, 0.2975964169963845, 0.34655216700048186, 0.39654933299607364, 0.44615458299813326, 0.49570837499777554, 0.5453038330015261, 0.5950665419950383, 0.6453772079985356, 0.6946946669995668, 0.7436413749965141, 0.7927473749950877, 0.8419706249987939, 0.891413792000094, 0.9409842499953811, 0.9917988750021323, 1.0415432919980958, 1.0914195829973323, 1.1409329579983023, 1.1896546669959207, 1.2384266250010114, 1.2871077919990057, 1.3362972079994506, 1.3860367919987766, 1.4368412499970873, 1.4872049999976298, 1.538000499996997, 1.5872744169973885]",1192.8051292080054,,,,,,,,921191,001,2024-02-05_16h18.39.649,WythoffsHumanExp,2023.1.3,None,
,,,,,,,,,,,,,,,,,,,,,,,,,,,,,,,,,,,,,,,,,,,,,,,,,,,,,,,,11,0,11,0,,,,,,0.017092834001232404,"[0.0, 0.0, 0.0, 0.0, 0.0, 0.0, -0.0077777777777777776, -0.03888888888888889, -0.10666666666666667, -0.17333333333333334, -0.24555555555555555, -0.28555555555555556, -0.3188888888888889, -0.3422222222222222, -0.36333333333333334, -0.37777777777777777, -0.38666666666666666, -0.3933333333333333, -0.4, -0.40555555555555556, -0.4066666666666667, -0.4066666666666667]","[0.0, 0.0, 0.0, 0.0, 0.0, 0.0, 0.006666666666666667, 0.03333333333333333, 0.09333333333333334, 0.15777777777777777, 0.22, 0.25666666666666665, 0.2833333333333333, 0.3055555555555556, 0.3277777777777778, 0.3522222222222222, 0.3655555555555556, 0.37555555555555553, 0.3888888888888889, 0.40444444444444444, 0.41, 0.41]","[0, 0, 0, 0, 0, 0, 0, 0, 0, 0, 0, 0, 0, 0, 0, 0, 0, 0, 0, 0, 1, 0]","[0, 0, 0, 0, 0, 0, 0, 0, 0, 0, 0, 0, 0, 0, 0, 0, 0, 0, 0, 0, 0, 0]","[0, 0, 0, 0, 0, 0, 0, 0, 0, 0, 0, 0, 0, 0, 0, 0, 0, 0, 0, 0, 0, 0]","[0.000295458004984539, 0.050498916003562044, 0.0996731660052319, 0.14854308300709818, 0.19768033300351817, 0.24671700000180863, 0.29656929100019624, 0.3461009160018875, 0.39611741600674577, 0.4459655830069096, 0.49591820800560527, 0.5456962080061203, 0.5950865830018301, 0.6447818330052542, 0.6947112080015359, 0.7446980410022661, 0.7946426250055083, 0.8444586660043569, 0.8939745830066386, 0.9442080830049235, 0.9942644580005435, 1.0443416660054936]",1204.2490958750059,,,,,,,,921191,001,2024-02-05_16h18.39.649,WythoffsHumanExp,2023.1.3,None,
,,,,,,,,,,,,,,,,,,,,,,,,,,,,,,,,,,,,,,,,,,,,,,,,,,,,,,,,12,0,12,0,,,,,,0.028385459001583513,"[0.0, 0.0, 0.0, 0.0, 0.0, 0.0, 0.0, 0.0, 0.0, 0.0, 0.0, 0.0, 0.0, 0.0, 0.0, 0.0, 0.0, 0.0, 0.0, 0.0, 0.0, 0.0, 0.0, 0.0, 0.0, 0.0, 0.0, 0.0, 0.0, 0.0, -0.0011111111111111111, 0.0044444444444444444, 0.021111111111111112, 0.03, 0.042222222222222223, 0.06222222222222222, 0.07222222222222222, 0.08222222222222222, 0.09444444444444444, 0.10666666666666667, 0.10888888888888888]","[0.0, 0.0, 0.0, 0.0, 0.0, 0.0, 0.0, 0.0, 0.0, 0.0, 0.0, 0.0, 0.0, 0.0, 0.0, 0.0, 0.0, 0.0, 0.0, 0.0, 0.0, 0.0, 0.0, 0.0, 0.0, 0.0, 0.0, 0.0, 0.013333333333333334, 0.03666666666666667, 0.07555555555555556, 0.1711111111111111, 0.25333333333333335, 0.2877777777777778, 0.31777777777777777, 0.3488888888888889, 0.36333333333333334, 0.37333333333333335, 0.38222222222222224, 0.39444444444444443, 0.4]","[0, 0, 0, 0, 0, 0, 0, 0, 0, 0, 0, 0, 0, 0, 0, 0, 0, 0, 0, 0, 0, 0, 0, 0, 0, 0, 0, 0, 0, 0, 0, 0, 0, 0, 0, 0, 0, 0, 0, 0, 1]","[0, 0, 0, 0, 0, 0, 0, 0, 0, 0, 0, 0, 0, 0, 0, 0, 0, 0, 0, 0, 0, 0, 0, 0, 0, 0, 0, 0, 0, 0, 0, 0, 0, 0, 0, 0, 0, 0, 0, 0, 0]","[0, 0, 0, 0, 0, 0, 0, 0, 0, 0, 0, 0, 0, 0, 0, 0, 0, 0, 0, 0, 0, 0, 0, 0, 0, 0, 0, 0, 0, 0, 0, 0, 0, 0, 0, 0, 0, 0, 0, 0, 0]","[0.00029858399648219347, 0.05006850000063423, 0.09947408399602864, 0.14905308399465866, 0.19840670899429824, 0.24760545900062425, 0.29707758400036255, 0.34697966699604876, 0.39694354200037196, 0.44780599999648985, 0.4976593339961255, 0.5470900000000256, 0.5961887919984292, 0.6453866249939892, 0.6944075419960427, 0.7447317089972785, 0.7959313339961227, 0.8482994589940063, 0.9007674999957089, 0.9529531669977587, 1.0060793749944423, 1.058001334000437, 1.1095731249952223, 1.1589742919968558, 1.2084943749941885, 1.2573109999939334, 1.3060772919998271, 1.3561297499982174, 1.4060592089954298, 1.4561987089982722, 1.5063930839969544, 1.5559453749956447, 1.6054767919995356, 1.655482916998153, 1.7049192919948837, 1.7552258750001783, 1.8049987919948762, 1.8551957919989945, 1.9048985419940436, 1.9551964169950224, 2.0051373339956626]",1215.3221542080064,,,,,,,,921191,001,2024-02-05_16h18.39.649,WythoffsHumanExp,2023.1.3,None,
,,,,,,,,,,,,,,,,,,,,,,,,,,,,,,,,,,,,,,,,,,,,,,,,,,,,,,,,13,0,13,0,,,,,,0.0351024170013261,"[0.0, 0.0, 0.0, 0.0, 0.0, 0.0, 0.0, 0.0, -0.042222222222222223, -0.10555555555555556, -0.20333333333333334, -0.2722222222222222, -0.32222222222222224, -0.35333333333333333, -0.37777777777777777, -0.3933333333333333, -0.4011111111111111, -0.4022222222222222]","[0.0, 0.0, 0.0, 0.0, 0.0, 0.0, 0.0, 0.0, 0.016666666666666666, 0.035555555555555556, 0.06333333333333334, 0.08777777777777777, 0.10111111111111111, 0.10333333333333333, 0.10666666666666667, 0.10888888888888888, 0.1111111111111111, 0.11222222222222222]","[0, 0, 0, 0, 0, 0, 0, 0, 0, 0, 0, 0, 0, 0, 0, 0, 0, 1]","[0, 0, 0, 0, 0, 0, 0, 0, 0, 0, 0, 0, 0, 0, 0, 0, 0, 0]","[0, 0, 0, 0, 0, 0, 0, 0, 0, 0, 0, 0, 0, 0, 0, 0, 0, 0]","[0.0002966249958262779, 0.049667249993945006, 0.09855629199591931, 0.14743333399383118, 0.1963937919936143, 0.24521054199431092, 0.2940163749954081, 0.34386258399899816, 0.3939566249973723, 0.4445192919956753, 0.4944773749957676, 0.5446311669948045, 0.5942212499940069, 0.6436190419990453, 0.6932933339994634, 0.7436753340007272, 0.7946713339988491, 0.8449614999990445]",1224.5611083750046,,,,,,,,921191,001,2024-02-05_16h18.39.649,WythoffsHumanExp,2023.1.3,None,
,,,,,,,,,,,,,,,,,,,,,,,,,,,,,,,,,,,,,,,,,,,,,,,,,,,,,,,,14,0,14,0,,,,,,0.016989540999929886,"[0.0, 0.0, 0.0, 0.0, 0.0, 0.0, -0.03888888888888889, -0.09444444444444444, -0.14333333333333334, -0.16777777777777778, -0.18, -0.18444444444444444, -0.18555555555555556, -0.18555555555555556, -0.18444444444444444]","[0.0, 0.0, 0.0, 0.0, 0.0, 0.0, 0.06333333333333334, 0.19444444444444445, 0.2911111111111111, 0.34, 0.36777777777777776, 0.38222222222222224, 0.3888888888888889, 0.39111111111111113, 0.39111111111111113]","[0, 0, 0, 0, 0, 0, 0, 0, 0, 0, 0, 0, 0, 0, 1]","[0, 0, 0, 0, 0, 0, 0, 0, 0, 0, 0, 0, 0, 0, 0]","[0, 0, 0, 0, 0, 0, 0, 0, 0, 0, 0, 0, 0, 0, 0]","[0.0002900000035879202, 0.05077879199961899, 0.09969920800358523, 0.1486492920012097, 0.19729000000370434, 0.24708845800341805, 0.2967414579979959, 0.34648241700051585, 0.39673483300430235, 0.44619179199798964, 0.4961533750029048, 0.5456667920007021, 0.5950281670011464, 0.6444095420010854, 0.6944064170020283]",1240.0337479580048,,,,,,,,921191,001,2024-02-05_16h18.39.649,WythoffsHumanExp,2023.1.3,None,
,,,,,,,,,,,,,,,,,,,,,,,,,,,,,,,,,,,,,,,,,,,,,,,,,,,,,,,,15,0,15,0,,,,,,0.01699650000227848,"[0.0, 0.0, 0.0, 0.0, 0.0, 0.0, 0.0, 0.0, 0.0, 0.0, 0.0, -0.025555555555555557, -0.10777777777777778, -0.2011111111111111, -0.27, -0.32, -0.35333333333333333, -0.37, -0.38, -0.39222222222222225, -0.40555555555555556, -0.4077777777777778, -0.4077777777777778, -0.4077777777777778]","[0.0, 0.0, 0.0, 0.0, 0.0, 0.0, 0.0, 0.0, 0.0, 0.0, 0.0, 0.014444444444444444, 0.058888888888888886, 0.12222222222222222, 0.18, 0.2088888888888889, 0.23666666666666666, 0.2611111111111111, 0.2788888888888889, 0.29555555555555557, 0.3188888888888889, 0.33555555555555555, 0.3433333333333333, 0.3433333333333333]","[0, 0, 0, 0, 0, 0, 0, 0, 0, 0, 0, 0, 0, 0, 0, 0, 0, 0, 0, 0, 0, 0, 1, 0]","[0, 0, 0, 0, 0, 0, 0, 0, 0, 0, 0, 0, 0, 0, 0, 0, 0, 0, 0, 0, 0, 0, 0, 0]","[0, 0, 0, 0, 0, 0, 0, 0, 0, 0, 0, 0, 0, 0, 0, 0, 0, 0, 0, 0, 0, 0, 0, 0]","[0.00029099999665049836, 0.05071370900259353, 0.09936920899781398, 0.14804433399694972, 0.19721679200301878, 0.2462794590028352, 0.294788500003051, 0.3432996249975986, 0.3924711669969838, 0.4415918340018834, 0.4917724589977297, 0.5426396670009126, 0.5934262090013362, 0.6436109589994885, 0.6959309590019984, 0.7456409590013209, 0.7948297499970067, 0.8435332500012009, 0.893302208998648, 0.9427862090014969, 0.9926050420035608, 1.0432764590004808, 1.0947579170024255, 1.1460090839973418]",1251.869146916004,,,,,,,,921191,001,2024-02-05_16h18.39.649,WythoffsHumanExp,2023.1.3,None,
,,,,,,,,,,,,,,,,,,,,,,,,,,,,,,,,,,,,,,,,,,,,,,,,,,,,,,,,16,0,16,0,,,,,,0.02974312500009546,"[0.0, 0.0, 0.0, 0.0, 0.0, 0.0, 0.0, 0.0, 0.0, 0.0, 0.0, 0.0, 0.0, 0.0, -0.017777777777777778, -0.09888888888888889, -0.2222222222222222, -0.2733333333333333, -0.2866666666666667, -0.2911111111111111, -0.2922222222222222, -0.2922222222222222, -0.29333333333333333, -0.29333333333333333, -0.29333333333333333]","[0.0, 0.0, 0.0, 0.0, 0.0, 0.0, 0.0, 0.0, 0.0, 0.0, 0.0, 0.0, 0.0, 0.0, 0.023333333333333334, 0.12222222222222222, 0.2544444444444444, 0.3022222222222222, 0.3233333333333333, 0.3388888888888889, 0.35333333333333333, 0.37, 0.39, 0.4, 0.4033333333333333]","[0, 0, 0, 0, 0, 0, 0, 0, 0, 0, 0, 0, 0, 0, 0, 0, 0, 0, 0, 0, 0, 0, 0, 0, 1]","[0, 0, 0, 0, 0, 0, 0, 0, 0, 0, 0, 0, 0, 0, 0, 0, 0, 0, 0, 0, 0, 0, 0, 0, 0]","[0, 0, 0, 0, 0, 0, 0, 0, 0, 0, 0, 0, 0, 0, 0, 0, 0, 0, 0, 0, 0, 0, 0, 0, 0]","[0.0002956249954877421, 0.05004791599640157, 0.09879424999962794, 0.14780320799764013, 0.19713487500121119, 0.24660183300147764, 0.2958559999970021, 0.3447483749987441, 0.3946163750006235, 0.4436127500011935, 0.4929049579950515, 0.5411987080005929, 0.5899953749976703, 0.6393440409956384, 0.6889147909969324, 0.7384339579948573, 0.7878220409984351, 0.8379657909972593, 0.8881975409967708, 0.9378206249966752, 0.9874471660004929, 1.0373808329968597, 1.0884445830015466, 1.1382777499966323, 1.1887737079960061]",1261.4066100830023,,,,,,,,921191,001,2024-02-05_16h18.39.649,WythoffsHumanExp,2023.1.3,None,
,,,,,,,,,,,,,,,,,,,,,,,,,,,,,,,,,,,,,,,,,,,,,,,,,,,,,,,,17,0,17,0,,,,,,0.030207208001229446,"[0.0, 0.0, 0.0, 0.0, 0.0, 0.0, 0.0, 0.0, 0.0, 0.0, 0.0, 0.0, 0.0, 0.0, 0.0, 0.0, 0.0, 0.0, 0.0, -0.024444444444444446, -0.12555555555555556, -0.30333333333333334, -0.3522222222222222, -0.35777777777777775, -0.35888888888888887, -0.36, -0.36444444444444446, -0.3844444444444444, -0.41444444444444445, -0.4211111111111111, -0.4211111111111111]","[0.0, 0.0, 0.0, 0.0, 0.0, 0.0, 0.0, 0.0, 0.0, 0.0, 0.0, 0.0, 0.0, 0.0, 0.0, 0.0, 0.0, 0.0, 0.0, 0.01, 0.043333333333333335, 0.08222222222222222, 0.09444444444444444, 0.09777777777777778, 0.09777777777777778, 0.09888888888888889, 0.09888888888888889, 0.08222222222222222, 0.06111111111111111, 0.057777777777777775, 0.057777777777777775]","[0, 0, 0, 0, 0, 0, 0, 0, 0, 0, 0, 0, 0, 0, 0, 0, 0, 0, 0, 0, 0, 0, 0, 0, 0, 0, 0, 0, 0, 0, 1]","[0, 0, 0, 0, 0, 0, 0, 0, 0, 0, 0, 0, 0, 0, 0, 0, 0, 0, 0, 0, 0, 0, 0, 0, 0, 0, 0, 0, 0, 0, 0]","[0, 0, 0, 0, 0, 0, 0, 0, 0, 0, 0, 0, 0, 0, 0, 0, 0, 0, 0, 0, 0, 0, 0, 0, 0, 0, 0, 0, 0, 0, 0]","[0.00029549999453593045, 0.049936374998651445, 0.0987716659947182, 0.14773945799970534, 0.19718641600047704, 0.24703283299459144, 0.29649912499735365, 0.34598979099973803, 0.39517249999335036, 0.4443204579947633, 0.49336408299859613, 0.5421764159982558, 0.5911417079987586, 0.6400268329962273, 0.688417749996006, 0.737262707996706, 0.7863427079937537, 0.8350179999979446, 0.8843314159967122, 0.9337959159965976, 0.9835318749974249, 1.0337321249971865, 1.0834122499945806, 1.1333414159962558, 1.1826568329997826, 1.2317293329979293, 1.2819450829993002, 1.3321422079970944, 1.3827225409986568, 1.4329111249971902, 1.483612957999867]",1271.1066013330055,,,,,,,,921191,001,2024-02-05_16h18.39.649,WythoffsHumanExp,2023.1.3,None,
,,,,,,,,,,,,,,,,,,,,,,,,,,,,,,,,,,,,,,,,,,,,,,,,,,,,,,,,18,0,18,0,,,,,,0.016982207998808008,"[0.0, 0.0, 0.0, 0.0, 0.0, 0.0, 0.0, -0.013333333333333334, -0.056666666666666664, -0.14, -0.22444444444444445, -0.2822222222222222, -0.31555555555555553, -0.34, -0.37666666666666665, -0.3977777777777778, -0.4122222222222222, -0.4177777777777778, -0.4177777777777778, -0.41444444444444445, -0.4122222222222222, -0.4122222222222222]","[0.0, 0.0, 0.0, 0.0, 0.0, 0.0, 0.0, 0.008888888888888889, 0.035555555555555556, 0.09222222222222222, 0.16444444444444445, 0.22111111111111112, 0.2633333333333333, 0.3011111111111111, 0.33666666666666667, 0.35444444444444445, 0.3688888888888889, 0.3844444444444444, 0.39555555555555555, 0.3988888888888889, 0.4, 0.4]","[0, 0, 0, 0, 0, 0, 0, 0, 0, 0, 0, 0, 0, 0, 0, 0, 0, 0, 0, 0, 0, 1]","[0, 0, 0, 0, 0, 0, 0, 0, 0, 0, 0, 0, 0, 0, 0, 0, 0, 0, 0, 0, 0, 0]","[0, 0, 0, 0, 0, 0, 0, 0, 0, 0, 0, 0, 0, 0, 0, 0, 0, 0, 0, 0, 0, 0]","[0.0002929170004790649, 0.05175849999795901, 0.10103329199773725, 0.15034704199933913, 0.19958800000313204, 0.2479684170029941, 0.2967505839988007, 0.346187834002194, 0.396333249998861, 0.44594954200147185, 0.49484416699851863, 0.544999124998867, 0.5949266669995268, 0.6444123340043006, 0.6943322090010042, 0.743813291999686, 0.793564958999923, 0.8435167089992319, 0.8937450000012177, 0.9431776670026011, 0.9925416670012055, 1.0425309999991441]",1280.5211889160055,,,,,,,,921191,001,2024-02-05_16h18.39.649,WythoffsHumanExp,2023.1.3,None,
,,,,,,,,,,,,,,,,,,,,,,,,,,,,,,,,,,,,,,,,,,,,,,,,,,,,,,,,19,0,19,0,,,,,,0.016978292005660478,"[0.0, 0.0, 0.0, 0.0, 0.0, 0.0, -0.0077777777777777776, -0.034444444444444444, -0.06333333333333334, -0.08, -0.09555555555555556, -0.1111111111111111, -0.12777777777777777, -0.13777777777777778, -0.14333333333333334, -0.14333333333333334, -0.14333333333333334]","[0.0, 0.0, 0.0, 0.0, 0.0, 0.0, 0.01888888888888889, 0.06555555555555556, 0.14333333333333334, 0.22777777777777777, 0.28555555555555556, 0.3333333333333333, 0.37555555555555553, 0.4011111111111111, 0.41555555555555557, 0.42333333333333334, 0.42333333333333334]","[0, 0, 0, 0, 0, 0, 0, 0, 0, 0, 0, 0, 0, 0, 0, 0, 1]","[0, 0, 0, 0, 0, 0, 0, 0, 0, 0, 0, 0, 0, 0, 0, 0, 0]","[0, 0, 0, 0, 0, 0, 0, 0, 0, 0, 0, 0, 0, 0, 0, 0, 0]","[0.00029275000269990414, 0.050462459003028926, 0.09916045900172321, 0.14741479200165486, 0.19588054199994076, 0.24506187500082888, 0.2949945000000298, 0.34492787499766564, 0.3952508750007837, 0.4444844589961576, 0.49302724999870406, 0.5434169590007514, 0.5939631669971277, 0.6438855840024189, 0.6934976249976899, 0.7440080840024166, 0.7940994590026094]",1293.4438744159997,,,,,,,,921191,001,2024-02-05_16h18.39.649,WythoffsHumanExp,2023.1.3,None,
,,,,,,,,,,,,,,,,,,,,,,,,,,,,,,,,,,,,,,,,,,,,,,,,,,,,,,,,20,0,20,0,,,,,,0.016979666994302534,"[0.0, 0.0, 0.0, 0.0, 0.0, 0.0, 0.0, 0.0, -0.012222222222222223, -0.07111111111111111, -0.19777777777777777, -0.27444444444444444, -0.31666666666666665, -0.3411111111111111, -0.35888888888888887, -0.37222222222222223, -0.39555555555555555, -0.4166666666666667, -0.42333333333333334, -0.42333333333333334]","[0.0, 0.0, 0.0, 0.0, 0.0, 0.0, 0.0, 0.0, 0.01, 0.07333333333333333, 0.23, 0.33, 0.37333333333333335, 0.3877777777777778, 0.39666666666666667, 0.4011111111111111, 0.4011111111111111, 0.40444444444444444, 0.4088888888888889, 0.41]","[0, 0, 0, 0, 0, 0, 0, 0, 0, 0, 0, 0, 0, 0, 0, 0, 0, 0, 1, 0]","[0, 0, 0, 0, 0, 0, 0, 0, 0, 0, 0, 0, 0, 0, 0, 0, 0, 0, 0, 0]","[0, 0, 0, 0, 0, 0, 0, 0, 0, 0, 0, 0, 0, 0, 0, 0, 0, 0, 0, 0]","[0.00029312499827938154, 0.05112529199686833, 0.10021516699634958, 0.14975220799533417, 0.19891054199979408, 0.24866533299791627, 0.29833483299444197, 0.34837174999847775, 0.39914358299574815, 0.44926179199683247, 0.4993259579932783, 0.5497670419936185, 0.600554957993154, 0.6509208749994286, 0.7010963329958031, 0.7511223749970668, 0.8013043329992797, 0.851655791993835, 0.903054541995516, 0.9531188329929137]",1305.8115298330013,,,,,,,,921191,001,2024-02-05_16h18.39.649,WythoffsHumanExp,2023.1.3,None,
,,,,,,,,,,,,,,,,,,,,,,,,,,,,,,,,,,,,,,,,,,,,,,,,,,,,,,,,21,0,21,0,,,,,,0.029017499997280538,"[0.0, 0.0, 0.0, 0.0, 0.0, 0.0, 0.0, 0.0, -0.021111111111111112, -0.058888888888888886, -0.1322222222222222, -0.2388888888888889, -0.31666666666666665, -0.3466666666666667, -0.3711111111111111, -0.3877777777777778, -0.3988888888888889, -0.4033333333333333, -0.40444444444444444]","[0.0, 0.0, 0.0, 0.0, 0.0, 0.0, 0.0, 0.0, 0.0033333333333333335, 0.015555555555555555, 0.03666666666666667, 0.06111111111111111, 0.08, 0.08888888888888889, 0.1, 0.11, 0.11777777777777777, 0.12333333333333334, 0.12555555555555556]","[0, 0, 0, 0, 0, 0, 0, 0, 0, 0, 0, 0, 0, 0, 0, 0, 0, 0, 1]","[0, 0, 0, 0, 0, 0, 0, 0, 0, 0, 0, 0, 0, 0, 0, 0, 0, 0, 0]","[0, 0, 0, 0, 0, 0, 0, 0, 0, 0, 0, 0, 0, 0, 0, 0, 0, 0, 0]","[0.0002981249999720603, 0.04980654099927051, 0.0983985409984598, 0.1479914160008775, 0.19772383300005458, 0.24728650000179186, 0.2969044580022455, 0.3470477079972625, 0.39782766599819297, 0.4490895830022055, 0.4999855830028537, 0.5498291659969254, 0.599434707997716, 0.6492942499971832, 0.6987060410028789, 0.7489892079975107, 0.7996690829968429, 0.8498632499977248, 0.8998332909977762]",1316.542699125006,,,,,,,,921191,001,2024-02-05_16h18.39.649,WythoffsHumanExp,2023.1.3,None,
,,,,,,,,,,,,,,,,,,,,,,,,,,,,,,,,,,,,,,,,,,,,,,,,,,,,,,,,22,0,22,0,,,,,,0.032638582997606136,"[0.0, 0.0, 0.0, 0.0, 0.0, 0.0, 0.0, 0.0, 0.0, 0.0, -0.025555555555555557, -0.14444444444444443, -0.3333333333333333, -0.39222222222222225, -0.4111111111111111, -0.4211111111111111, -0.4288888888888889, -0.43333333333333335, -0.4311111111111111, -0.42333333333333334, -0.41888888888888887, -0.4177777777777778]","[0.0, 0.0, 0.0, 0.0, 0.0, 0.0, 0.0, 0.0, 0.0, 0.0, 0.011111111111111112, 0.0811111111111111, 0.19555555555555557, 0.24666666666666667, 0.2777777777777778, 0.29333333333333333, 0.29888888888888887, 0.30444444444444446, 0.32222222222222224, 0.3377777777777778, 0.3477777777777778, 0.3488888888888889]","[0, 0, 0, 0, 0, 0, 0, 0, 0, 0, 0, 0, 0, 0, 0, 0, 0, 0, 0, 0, 1, 1]","[0, 0, 0, 0, 0, 0, 0, 0, 0, 0, 0, 0, 0, 0, 0, 0, 0, 0, 0, 0, 0, 0]","[0, 0, 0, 0, 0, 0, 0, 0, 0, 0, 0, 0, 0, 0, 0, 0, 0, 0, 0, 0, 0, 0]","[0.00030049999622860923, 0.05013366699859034, 0.09913787499681348, 0.14820941699872492, 0.19672533399716485, 0.2458695839959546, 0.2946328749967506, 0.34396949999791104, 0.3933338749993709, 0.4438949169998523, 0.4948152500001015, 0.5452708340017125, 0.595467708997603, 0.6457864589974633, 0.6949005839996971, 0.7453765419995761, 0.7953422919963486, 0.8452994589970331, 0.8959204999991925, 0.9457759590004571, 0.9961091250006575, 1.0461537500013947]",1326.017023625005,,,,,,,,921191,001,2024-02-05_16h18.39.649,WythoffsHumanExp,2023.1.3,None,
,,,,,,,,,,,,,,,,,,,,,,,,,,,,,,,,,,,,,,,,,,,,,,,,,,,,,,,,23,0,23,0,,,,,,0.017034750002494548,"[0.0, 0.0, 0.0, 0.0, 0.0, 0.0, 0.0, 0.0, -0.005555555555555556, -0.06333333333333334, -0.2088888888888889, -0.31555555555555553, -0.36666666666666664, -0.39666666666666667, -0.4122222222222222, -0.4222222222222222, -0.42777777777777776, -0.4288888888888889, -0.4288888888888889]","[0.0, 0.0, 0.0, 0.0, 0.0, 0.0, 0.0, 0.0, 0.0, 0.035555555555555556, 0.13666666666666666, 0.22, 0.26222222222222225, 0.2777777777777778, 0.2833333333333333, 0.29333333333333333, 0.3055555555555556, 0.3088888888888889, 0.3088888888888889]","[0, 0, 0, 0, 0, 0, 0, 0, 0, 0, 0, 0, 0, 0, 0, 0, 0, 1, 0]","[0, 0, 0, 0, 0, 0, 0, 0, 0, 0, 0, 0, 0, 0, 0, 0, 0, 0, 0]","[0, 0, 0, 0, 0, 0, 0, 0, 0, 0, 0, 0, 0, 0, 0, 0, 0, 0, 0]","[0.0002956669995910488, 0.05070329199952539, 0.0992809169983957, 0.14764562499476597, 0.19610474999353755, 0.24489587499556364, 0.2940699169994332, 0.3439449999932549, 0.3938492499946733, 0.4433247089982615, 0.49332954199780943, 0.5430206249948242, 0.5926447919991915, 0.6429119169988553, 0.69296137499623, 0.7425064999988535, 0.7920710420003161, 0.8420231669952045, 0.8914908339938847]",1337.809366666006,,,,,,,,921191,001,2024-02-05_16h18.39.649,WythoffsHumanExp,2023.1.3,None,
,,,,,,,,,,,,,,,,,,,,,,,,,,,,,,,,,,,,,,,,,,,,,,,,,,,,,,,,24,0,24,0,,,,,,0.03807875000347849,"[0.0, 0.0, 0.0, 0.0, 0.0, 0.0, 0.0, 0.0, 0.0, 0.0, 0.0, 0.0, 0.0, 0.0, 0.0, 0.0, 0.0, 0.0, 0.0, 0.0, 0.0, -0.028888888888888888, -0.08777777777777777, -0.19333333333333333, -0.26555555555555554, -0.3055555555555556, -0.33666666666666667, -0.3611111111111111, -0.3788888888888889, -0.39666666666666667, -0.40555555555555556, -0.4077777777777778, -0.4077777777777778]","[0.0, 0.0, 0.0, 0.0, 0.0, 0.0, 0.0, 0.0, 0.0, 0.0, 0.0, 0.0, 0.0, 0.0, 0.0, 0.0, 0.0, 0.0, 0.0, 0.0, 0.0, 0.028888888888888888, 0.057777777777777775, 0.09, 0.1288888888888889, 0.15777777777777777, 0.1711111111111111, 0.17666666666666667, 0.18666666666666668, 0.20555555555555555, 0.22555555555555556, 0.23666666666666666, 0.23777777777777778]","[0, 0, 0, 0, 0, 0, 0, 0, 0, 0, 0, 0, 0, 0, 0, 0, 0, 0, 0, 0, 0, 0, 0, 0, 0, 0, 0, 0, 0, 0, 0, 0, 1]","[0, 0, 0, 0, 0, 0, 0, 0, 0, 0, 0, 0, 0, 0, 0, 0, 0, 0, 0, 0, 0, 0, 0, 0, 0, 0, 0, 0, 0, 0, 0, 0, 0]","[0, 0, 0, 0, 0, 0, 0, 0, 0, 0, 0, 0, 0, 0, 0, 0, 0, 0, 0, 0, 0, 0, 0, 0, 0, 0, 0, 0, 0, 0, 0, 0, 0]","[0.0002994579990627244, 0.049580375001823995, 0.09808470799907809, 0.14738766600203235, 0.19683187500049826, 0.24652950000017881, 0.29606191600032616, 0.34586983299959684, 0.39551850000134436, 0.44497941600275226, 0.4939689160019043, 0.5428613330004737, 0.5914809999958379, 0.639868790996843, 0.688746457999514, 0.7385545409997576, 0.7874548749969108, 0.8366865829957533, 0.8854548750023241, 0.9869967499980703, 1.0368213749970892, 1.0865453750011511, 1.1370359159991494, 1.1866393329983111, 1.236273540998809, 1.2861213750002207, 1.335892082999635, 1.3858101660007378, 1.4361683749957592, 1.4857480409991695, 1.535317624999152, 1.5856226659961976, 1.6355041249989881]",1348.3617515830047,,,,,,,,921191,001,2024-02-05_16h18.39.649,WythoffsHumanExp,2023.1.3,None,
,,,,,,,,,,,,,,,,,,,,,,,,,,,,,,,,,,,,,,,,,,,,,,,,,,,,,,,,25,0,25,0,,,,,,0.017095875002269167,"[0.0, 0.0, 0.0, 0.0, 0.0, 0.0, 0.0, 0.0, 0.0, 0.0, 0.0, 0.0, 0.0, 0.0, 0.0, 0.0, 0.0, 0.0, 0.01888888888888889, 0.04555555555555556, 0.06, 0.06333333333333334, 0.06444444444444444, 0.06777777777777778, 0.07, 0.07, 0.07, 0.07, 0.07, 0.07, 0.07, 0.07, 0.07, 0.07, 0.07, 0.06555555555555556, 0.06, 0.056666666666666664, 0.056666666666666664]","[0.0, 0.0, 0.0, 0.0, 0.0, 0.0, 0.0, 0.0, 0.0, 0.0, 0.0, 0.0, 0.0, 0.0, 0.0, 0.0, 0.0, 0.022222222222222223, 0.12666666666666668, 0.25, 0.3111111111111111, 0.3277777777777778, 0.3411111111111111, 0.35333333333333333, 0.35777777777777775, 0.35777777777777775, 0.35888888888888887, 0.36, 0.36, 0.36, 0.36444444444444446, 0.36444444444444446, 0.36444444444444446, 0.36444444444444446, 0.36444444444444446, 0.38222222222222224, 0.4, 0.4077777777777778, 0.4088888888888889]","[0, 0, 0, 0, 0, 0, 0, 0, 0, 0, 0, 0, 0, 0, 0, 0, 0, 0, 0, 0, 0, 0, 0, 0, 0, 0, 0, 0, 0, 0, 0, 0, 0, 0, 0, 0, 0, 0, 1]","[0, 0, 0, 0, 0, 0, 0, 0, 0, 0, 0, 0, 0, 0, 0, 0, 0, 0, 0, 0, 0, 0, 0, 0, 0, 0, 0, 0, 0, 0, 0, 0, 0, 0, 0, 0, 0, 0, 0]","[0, 0, 0, 0, 0, 0, 0, 0, 0, 0, 0, 0, 0, 0, 0, 0, 0, 0, 0, 0, 0, 0, 0, 0, 0, 0, 0, 0, 0, 0, 0, 0, 0, 0, 0, 0, 0, 0, 0]","[0.0002950409980257973, 0.05058504099724814, 0.09947229099634569, 0.14809904099820415, 0.1975607080021291, 0.24690666599781252, 0.29546383299748413, 0.3439955830035615, 0.39281366600334877, 0.4417535829998087, 0.49090099999739323, 0.5402350000003935, 0.5904232500033686, 0.6402147909975611, 0.689756749998196, 0.7392814159975387, 0.7893104160029907, 0.8397636250010692, 0.8901554159965599, 0.9406607080018148, 0.9916718329986907, 1.0409283330009202, 1.0913616659963736, 1.141724458000681, 1.191431500003091, 1.2413627080022707, 1.2912335000000894, 1.3407029160007369, 1.3903279160003876, 1.4405294579992187, 1.4909957080017193, 1.5405072909998125, 1.589725541001826, 1.6389607079981943, 1.6887073749967385, 1.738984875002643, 1.790015874998062, 1.8402520829986315, 1.891163291002158]",1360.8453213750036,,,,,,,,921191,001,2024-02-05_16h18.39.649,WythoffsHumanExp,2023.1.3,None,
,,,,,,,,,,,,,,,,,,,,,,,,,,,,,,,,,,,,,,,,,,,,,,,,,,,,,,,,26,0,26,0,,,,,,0.01837974999943981,"[0.0, 0.0, 0.0, 0.0, 0.0, 0.0, 0.0, 0.0, 0.0, 0.0, 0.0, 0.0, 0.0, 0.0, -0.035555555555555556, -0.1288888888888889, -0.2222222222222222, -0.2611111111111111, -0.2922222222222222, -0.33555555555555555, -0.35888888888888887, -0.37333333333333335, -0.38555555555555554, -0.39555555555555555, -0.4022222222222222, -0.4033333333333333, -0.4033333333333333]","[0.0, 0.0, 0.0, 0.0, 0.0, 0.0, 0.0, 0.0, 0.0, 0.0, 0.0, 0.0, 0.0, 0.0, 0.034444444444444444, 0.1111111111111111, 0.20666666666666667, 0.2722222222222222, 0.31777777777777777, 0.3466666666666667, 0.35555555555555557, 0.3655555555555556, 0.37444444444444447, 0.38222222222222224, 0.39111111111111113, 0.39666666666666667, 0.3977777777777778]","[0, 0, 0, 0, 0, 0, 0, 0, 0, 0, 0, 0, 0, 0, 0, 0, 0, 0, 0, 0, 0, 0, 0, 0, 0, 1, 0]","[0, 0, 0, 0, 0, 0, 0, 0, 0, 0, 0, 0, 0, 0, 0, 0, 0, 0, 0, 0, 0, 0, 0, 0, 0, 0, 0]","[0, 0, 0, 0, 0, 0, 0, 0, 0, 0, 0, 0, 0, 0, 0, 0, 0, 0, 0, 0, 0, 0, 0, 0, 0, 0, 0]","[0.00040754099609330297, 0.05335183299757773, 0.10485141599929193, 0.1554567909988691, 0.20494024999788962, 0.2535706249982468, 0.3022528750007041, 0.3505920829993556, 0.3993496659968514, 0.4493360409978777, 0.4988054999994347, 0.5486424999980954, 0.5981201659960789, 0.6484202909996384, 0.6989882909983862, 0.7498191249978845, 0.80028829100047, 0.8501767499983544, 0.8998659159988165, 0.9501047500016284, 0.999799790995894, 1.0500347499983036, 1.1004248329991242, 1.1498545409995131, 1.1998672499976237, 1.250274250000075, 1.3010274580010446]",1373.2578033330064,,,,,,,,921191,001,2024-02-05_16h18.39.649,WythoffsHumanExp,2023.1.3,None,
,,,,,,,,,,,,,,,,,,,,,,,,,,,,,,,,,,,,,,,,,,,,,,,,,,,,,,,,27,0,27,0,,,,,,0.01708583300205646,"[0.0, 0.0, 0.0, 0.0, 0.0, 0.0, 0.0, 0.0, 0.0, 0.0, -0.005555555555555556, -0.10111111111111111, -0.28444444444444444, -0.3988888888888889, -0.43444444444444447, -0.4444444444444444, -0.45111111111111113, -0.4533333333333333, -0.4477777777777778, -0.4222222222222222, -0.4066666666666667, -0.4066666666666667]","[0.0, 0.0, 0.0, 0.0, 0.0, 0.0, 0.0, 0.0, 0.0, 0.0, 0.0022222222222222222, 0.08444444444444445, 0.2222222222222222, 0.28444444444444444, 0.3088888888888889, 0.33111111111111113, 0.35333333333333333, 0.3688888888888889, 0.37222222222222223, 0.37, 0.3655555555555556, 0.3655555555555556]","[0, 0, 0, 0, 0, 0, 0, 0, 0, 0, 0, 0, 0, 0, 0, 0, 0, 0, 0, 0, 1, 0]","[0, 0, 0, 0, 0, 0, 0, 0, 0, 0, 0, 0, 0, 0, 0, 0, 0, 0, 0, 0, 0, 0]","[0, 0, 0, 0, 0, 0, 0, 0, 0, 0, 0, 0, 0, 0, 0, 0, 0, 0, 0, 0, 0, 0]","[0.0002953329967567697, 0.050978708000911865, 0.10012020800058963, 0.14923508299398236, 0.19780558299680706, 0.24659445799625246, 0.29573116699612, 0.3446645419971901, 0.393857625000237, 0.44380624999757856, 0.49489395799901104, 0.5447276669947314, 0.5950934579959721, 0.6450210830007563, 0.6953957500008983, 0.7452415000007022, 0.7951341250009136, 0.8449930829956429, 0.893805916995916, 0.9443730419952772, 0.9957270419981796, 1.0465066249962547]",1385.5460776660038,,,,,,,,921191,001,2024-02-05_16h18.39.649,WythoffsHumanExp,2023.1.3,None,
,,,,,,,,,,,,,,,,,,,,,,,,,,,,,,,,,,,,,,,,,,,,,,,,,,,,,,,,28,0,28,0,,,,,,0.01699200000439305,"[0.0, 0.0, 0.0, 0.0, 0.0, 0.0, 0.0, 0.0, 0.0, 0.0, 0.0, 0.0, 0.0, 0.0, 0.0, 0.0, 0.0, 0.0, 0.0, 0.0, 0.0, 0.0, 0.0, 0.0, 0.0, 0.0, 0.0, 0.0, -0.011111111111111112, -0.08444444444444445, -0.2088888888888889, -0.2822222222222222, -0.31, -0.31222222222222223, -0.31222222222222223, -0.31222222222222223, -0.3233333333333333, -0.33111111111111113, -0.3322222222222222, -0.33555555555555555, -0.33666666666666667, -0.33666666666666667]","[0.0, 0.0, 0.0, 0.0, 0.0, 0.0, 0.0, 0.0, 0.0, 0.0, 0.0, 0.0, 0.0, 0.0, 0.0, 0.0, 0.0, 0.0, 0.0, 0.0, 0.0, 0.0, 0.0, 0.0, 0.0, 0.0, 0.0, 0.0, 0.015555555555555555, 0.1322222222222222, 0.35888888888888887, 0.5, 0.5, 0.5, 0.5, 0.5, 0.47333333333333333, 0.45111111111111113, 0.4388888888888889, 0.42333333333333334, 0.42, 0.42]","[0, 0, 0, 0, 0, 0, 0, 0, 0, 0, 0, 0, 0, 0, 0, 0, 0, 0, 0, 0, 0, 0, 0, 0, 0, 0, 0, 0, 0, 0, 0, 0, 0, 0, 0, 0, 0, 0, 0, 0, 1, 0]","[0, 0, 0, 0, 0, 0, 0, 0, 0, 0, 0, 0, 0, 0, 0, 0, 0, 0, 0, 0, 0, 0, 0, 0, 0, 0, 0, 0, 0, 0, 0, 0, 0, 0, 0, 0, 0, 0, 0, 0, 0, 0]","[0, 0, 0, 0, 0, 0, 0, 0, 0, 0, 0, 0, 0, 0, 0, 0, 0, 0, 0, 0, 0, 0, 0, 0, 0, 0, 0, 0, 0, 0, 0, 0, 0, 0, 0, 0, 0, 0, 0, 0, 0, 0]","[0.0002954579977085814, 0.05036454199580476, 0.09939091699925484, 0.14794691700080875, 0.1963820000019041, 0.24538812499667984, 0.2938920419983333, 0.3427405420006835, 0.39213591699808603, 0.44178691699926276, 0.49088270799984457, 0.5407757079956355, 0.5900846669974271, 0.6391602500007139, 0.6881814579974161, 0.7371607079985552, 0.7863392079962068, 0.8354384580015903, 0.8841797499990207, 0.9325862080004299, 0.9813419580023037, 1.0299624170002062, 1.0785578329960117, 1.1265822919958737, 1.1757647499980521, 1.2251046669989591, 1.2753563329970348, 1.3252365829976043, 1.37555354199867, 1.425883582996903, 1.4761152080027387, 1.5264950420023524, 1.577719499997329, 1.626815333002014, 1.6758616669976618, 1.7253873750014463, 1.7754802080016816, 1.8257719579996774, 1.8761699999959092, 1.926704833000258, 1.976801124998019, 2.0272566670028027]",1398.3946242080056,,,,,,,,921191,001,2024-02-05_16h18.39.649,WythoffsHumanExp,2023.1.3,None,
,,,,,,,,,,,,,,,,,,,,,,,,,,,,,,,,,,,,,,,,,,,,,,,,,,,,,,,,29,0,29,0,,,,,,0.01704845899803331,"[0.0, 0.0, 0.0, 0.0, 0.0, 0.0, 0.0, 0.0, -0.006666666666666667, -0.07444444444444444, -0.22444444444444445, -0.29444444444444445, -0.31333333333333335, -0.3211111111111111, -0.32666666666666666, -0.3333333333333333, -0.3433333333333333, -0.3522222222222222, -0.3566666666666667, -0.3611111111111111, -0.3611111111111111, -0.36333333333333334, -0.36333333333333334, -0.36333333333333334, -0.36333333333333334, -0.36333333333333334, -0.36333333333333334, -0.36333333333333334, -0.36333333333333334, -0.36444444444444446, -0.38555555555555554, -0.4088888888888889, -0.42, -0.4211111111111111, -0.4211111111111111]","[0.0, 0.0, 0.0, 0.0, 0.0, 0.0, 0.0, 0.0, 0.005555555555555556, 0.07888888888888888, 0.23333333333333334, 0.29777777777777775, 0.3188888888888889, 0.3322222222222222, 0.3433333333333333, 0.3522222222222222, 0.3622222222222222, 0.37, 0.37555555555555553, 0.3788888888888889, 0.3788888888888889, 0.3788888888888889, 0.3788888888888889, 0.3788888888888889, 0.3788888888888889, 0.3788888888888889, 0.3788888888888889, 0.3788888888888889, 0.3788888888888889, 0.3788888888888889, 0.3877777777777778, 0.4022222222222222, 0.41444444444444445, 0.41555555555555557, 0.41555555555555557]","[0, 0, 0, 0, 0, 0, 0, 0, 0, 0, 0, 0, 0, 0, 0, 0, 0, 0, 0, 0, 0, 0, 0, 1, 0, 0, 0, 0, 0, 0, 0, 0, 0, 1, 0]","[0, 0, 0, 0, 0, 0, 0, 0, 0, 0, 0, 0, 0, 0, 0, 0, 0, 0, 0, 0, 0, 0, 0, 0, 0, 0, 0, 0, 0, 0, 0, 0, 0, 0, 0]","[0, 0, 0, 0, 0, 0, 0, 0, 0, 0, 0, 0, 0, 0, 0, 0, 0, 0, 0, 0, 0, 0, 0, 0, 0, 0, 0, 0, 0, 0, 0, 0, 0, 0, 0]","[0.0002925829976447858, 0.05095170799904736, 0.09962308299873257, 0.14811445800296497, 0.19724120799946832, 0.24541075000161072, 0.29472900000109803, 0.3432802079987596, 0.3925813329988159, 0.4426429579980322, 0.49279791599838063, 0.5423742909988505, 0.5919203750017914, 0.6414879160001874, 0.6914076660032151, 0.741417208002531, 0.7915518330046325, 0.8416611249995185, 0.8909799160028342, 0.9397454159989138, 0.9899746250011958, 1.0398510410013841, 1.0901029160013422, 1.1407664580037817, 1.1910144580033375, 1.2408403750014259, 1.2901846660024603, 1.3397667910030577, 1.391108666000946, 1.440601374997641, 1.4908031660015695, 1.5410004580044188, 1.5909797080021235, 1.6419181660021422, 1.6915342499996768]",1410.5677596660025,,,,,,,,921191,001,2024-02-05_16h18.39.649,WythoffsHumanExp,2023.1.3,None,
,,,,,,,,,,,,,,,,,,,,,,,,,,,,,,,,,,,,,,,,,,,,,,,,,,,,,,,,,,,,,,,,,,,,,,,,,,,,,,,1411.5181737910025,921191,001,2024-02-05_16h18.39.649,WythoffsHumanExp,2023.1.3,None,
